accelerometer-icm20690,invensense,2020-02-18_14-18-28.815_865914035260724
timestamp,accuracy(more=better),acc_x[m/s^2],acc_y[m/s^2],acc_z[m/s^2]
172029867,3,0.11492168,0.31603462,9.80665
172029869,3,0.12449849,0.31603462,9.80665
172029871,3,0.11492168,0.31603462,9.797073
172029873,3,0.11492168,0.31603462,9.797073
172029875,3,0.11492168,0.31603462,9.797073
172029877,3,0.11492168,0.31603462,9.797073
172029879,3,0.11492168,0.31603462,9.797073
172029881,3,0.11492168,0.31603462,9.816227
172029883,3,0.10534488,0.30645782,9.816227
172029885,3,0.095768064,0.2873042,9.835381
172029887,3,0.076614454,0.25857377,9.873688
172029889,3,0.095768064,0.2681506,9.854534
172029891,3,0.10534488,0.2777274,9.854534
172029893,3,0.10534488,0.2873042,9.854534
172029895,3,0.10534488,0.2873042,9.854534
172029897,3,0.10534488,0.29688102,9.854534
172029899,3,0.11492168,0.29688102,9.854534
172029901,3,0.11492168,0.29688102,9.854534
172029903,3,0.11492168,0.29688102,9.854534
172029905,3,0.11492168,0.29688102,9.873688
172029907,3,0.11492168,0.29688102,9.873688
172029909,3,0.11492168,0.29688102,9.873688
172029911,3,0.11492168,0.29688102,9.873688
172029913,3,0.11492168,0.29688102,9.873688
172029915,3,0.11492168,0.29688102,9.873688
172029917,3,0.11492168,0.30645782,9.873688
172029919,3,0.11492168,0.30645782,9.854534
172029921,3,0.11492168,0.30645782,9.854534
172029923,3,0.11492168,0.30645782,9.854534
172029925,3,0.11492168,0.30645782,9.854534
172029927,3,0.11492168,0.30645782,9.854534
172029929,3,0.11492168,0.30645782,9.864111
172029931,3,0.095768064,0.30645782,9.854534
172029933,3,0.095768064,0.30645782,9.864111
172029935,3,0.095768064,0.30645782,9.873688
172029937,3,0.095768064,0.30645782,9.892841
172029939,3,0.095768064,0.30645782,9.892841
172029941,3,0.10534488,0.30645782,9.892841
172029943,3,0.10534488,0.30645782,9.892841
172029945,3,0.10534488,0.30645782,9.892841
172029947,3,0.10534488,0.30645782,9.873688
172029949,3,0.10534488,0.30645782,9.873688
172029951,3,0.10534488,0.30645782,9.873688
172029953,3,0.10534488,0.30645782,9.873688
172029955,3,0.10534488,0.30645782,9.873688
172029957,3,0.10534488,0.30645782,9.873688
172029959,3,0.10534488,0.30645782,9.873688
172029961,3,0.10534488,0.30645782,9.873688
172029963,3,0.10534488,0.30645782,9.873688
172029965,3,0.10534488,0.30645782,9.873688
172029967,3,0.10534488,0.30645782,9.873688
172029969,3,0.11492168,0.30645782,9.873688
172029971,3,0.12449849,0.30645782,9.873688
172029973,3,0.12449849,0.30645782,9.873688
172029975,3,0.12449849,0.30645782,9.873688
172029977,3,0.12449849,0.29688102,9.892841
172029979,3,0.12449849,0.29688102,9.892841
172029981,3,0.12449849,0.29688102,9.892841
172029983,3,0.12449849,0.29688102,9.911995
172029985,3,0.12449849,0.29688102,9.911995
172029987,3,0.12449849,0.29688102,9.911995
172029989,3,0.12449849,0.29688102,9.911995
172029991,3,0.12449849,0.29688102,9.911995
172029993,3,0.12449849,0.29688102,9.902418
172029995,3,0.12449849,0.31603462,9.883265
172029997,3,0.12449849,0.31603462,9.883265
172029999,3,0.12449849,0.31603462,9.883265
172030001,3,0.12449849,0.30645782,9.883265
172030003,3,0.12449849,0.29688102,9.883265
172030005,3,0.12449849,0.29688102,9.892841
172030007,3,0.12449849,0.30645782,9.892841
172030009,3,0.12449849,0.30645782,9.892841
172030011,3,0.12449849,0.30645782,9.892841
172030013,3,0.12449849,0.30645782,9.892841
172030015,3,0.12449849,0.30645782,9.892841
172030017,3,0.12449849,0.30645782,9.892841
172030019,3,0.12449849,0.30645782,9.892841
172030021,3,0.12449849,0.30645782,9.892841
172030023,3,0.12449849,0.30645782,9.892841
172030025,3,0.12449849,0.30645782,9.892841
172030027,3,0.12449849,0.30645782,9.892841
172030029,3,0.12449849,0.30645782,9.892841
172030031,3,0.12449849,0.30645782,9.892841
172030033,3,0.12449849,0.30645782,9.892841
172030035,3,0.12449849,0.30645782,9.892841
172030037,3,0.12449849,0.30645782,9.892841
172030039,3,0.12449849,0.30645782,9.892841
172030041,3,0.12449849,0.30645782,9.892841
172030043,3,0.12449849,0.30645782,9.892841
172030045,3,0.12449849,0.30645782,9.892841
172030047,3,0.12449849,0.30645782,9.892841
172030049,3,0.12449849,0.30645782,9.892841
172030051,3,0.12449849,0.29688102,9.892841
172030053,3,0.11492168,0.2873042,9.892841
172030055,3,0.11492168,0.2777274,9.892841
172030057,3,0.11492168,0.2777274,9.892841
172030059,3,0.11492168,0.2777274,9.892841
172030061,3,0.11492168,0.2777274,9.892841
172030063,3,0.11492168,0.2777274,9.892841
172030065,3,0.11492168,0.2873042,9.892841
172030067,3,0.11492168,0.29688102,9.892841
172030069,3,0.12449849,0.30645782,9.892841
172030071,3,0.1340753,0.30645782,9.892841
172030073,3,0.11492168,0.30645782,9.883265
172030075,3,0.11492168,0.30645782,9.883265
172030077,3,0.12449849,0.30645782,9.883265
172030079,3,0.12449849,0.30645782,9.883265
172030081,3,0.12449849,0.30645782,9.883265
172030083,3,0.12449849,0.30645782,9.883265
172030085,3,0.12449849,0.30645782,9.883265
172030087,3,0.12449849,0.30645782,9.883265
172030089,3,0.12449849,0.30645782,9.864111
172030091,3,0.12449849,0.30645782,9.864111
172030093,3,0.12449849,0.30645782,9.864111
172030095,3,0.12449849,0.30645782,9.864111
172030097,3,0.12449849,0.30645782,9.864111
172030099,3,0.1340753,0.30645782,9.864111
172030101,3,0.1340753,0.30645782,9.873688
172030103,3,0.1340753,0.30645782,9.883265
172030105,3,0.12449849,0.30645782,9.883265
172030107,3,0.12449849,0.30645782,9.883265
172030109,3,0.12449849,0.30645782,9.883265
172030111,3,0.12449849,0.30645782,9.883265
172030113,3,0.12449849,0.30645782,9.883265
172030115,3,0.12449849,0.30645782,9.864111
172030117,3,0.12449849,0.30645782,9.864111
172030119,3,0.12449849,0.30645782,9.864111
172030121,3,0.12449849,0.30645782,9.864111
172030123,3,0.12449849,0.30645782,9.864111
172030125,3,0.12449849,0.30645782,9.873688
172030127,3,0.12449849,0.29688102,9.873688
172030129,3,0.12449849,0.29688102,9.873688
172030131,3,0.12449849,0.29688102,9.873688
172030133,3,0.12449849,0.29688102,9.873688
172030135,3,0.12449849,0.30645782,9.873688
172030137,3,0.1340753,0.30645782,9.873688
172030139,3,0.1340753,0.30645782,9.873688
172030141,3,0.1340753,0.30645782,9.864111
172030143,3,0.1340753,0.30645782,9.864111
172030145,3,0.12449849,0.30645782,9.864111
172030147,3,0.12449849,0.30645782,9.864111
172030149,3,0.12449849,0.30645782,9.864111
172030151,3,0.12449849,0.30645782,9.864111
172030153,3,0.12449849,0.29688102,9.864111
172030155,3,0.12449849,0.29688102,9.883265
172030157,3,0.12449849,0.29688102,9.892841
172030159,3,0.12449849,0.29688102,9.892841
172030161,3,0.12449849,0.29688102,9.892841
172030163,3,0.12449849,0.29688102,9.883265
172030165,3,0.12449849,0.29688102,9.864111
172030167,3,0.12449849,0.30645782,9.844957
172030169,3,0.12449849,0.31603462,9.844957
172030171,3,0.12449849,0.31603462,9.844957
172030173,3,0.12449849,0.31603462,9.835381
172030175,3,0.12449849,0.31603462,9.835381
172030177,3,0.12449849,0.30645782,9.835381
172030179,3,0.12449849,0.29688102,9.844957
172030181,3,0.12449849,0.29688102,9.864111
172030183,3,0.12449849,0.29688102,9.864111
172030185,3,0.12449849,0.29688102,9.873688
172030187,3,0.12449849,0.29688102,9.873688
172030189,3,0.11492168,0.29688102,9.873688
172030191,3,0.10534488,0.30645782,9.873688
172030193,3,0.10534488,0.31603462,9.854534
172030195,3,0.10534488,0.31603462,9.844957
172030197,3,0.10534488,0.31603462,9.844957
172030199,3,0.10534488,0.31603462,9.844957
172030201,3,0.10534488,0.31603462,9.844957
172030203,3,0.11492168,0.31603462,9.854534
172030205,3,0.11492168,0.31603462,9.864111
172030207,3,0.11492168,0.31603462,9.883265
172030209,3,0.11492168,0.31603462,9.892841
172030211,3,0.11492168,0.30645782,9.892841
172030213,3,0.11492168,0.29688102,9.892841
172030215,3,0.11492168,0.29688102,9.892841
172030217,3,0.11492168,0.29688102,9.873688
172030219,3,0.11492168,0.29688102,9.854534
172030221,3,0.11492168,0.30645782,9.844957
172030223,3,0.11492168,0.30645782,9.835381
172030225,3,0.12449849,0.30645782,9.835381
172030227,3,0.12449849,0.30645782,9.835381
172030229,3,0.1340753,0.29688102,9.835381
172030231,3,0.1340753,0.29688102,9.835381
172030233,3,0.1340753,0.29688102,9.844957
172030235,3,0.1340753,0.2873042,9.854534
172030237,3,0.1340753,0.2873042,9.854534
172030239,3,0.1340753,0.2873042,9.854534
172030241,3,0.1340753,0.2873042,9.844957
172030243,3,0.1340753,0.30645782,9.835381
172030245,3,0.1340753,0.30645782,9.835381
172030247,3,0.1340753,0.30645782,9.825804
172030249,3,0.1340753,0.30645782,9.825804
172030251,3,0.1340753,0.30645782,9.825804
172030253,3,0.12449849,0.30645782,9.825804
172030255,3,0.12449849,0.30645782,9.844957
172030257,3,0.12449849,0.30645782,9.854534
172030259,3,0.10534488,0.30645782,9.854534
172030261,3,0.10534488,0.30645782,9.873688
172030263,3,0.11492168,0.30645782,9.873688
172030265,3,0.11492168,0.30645782,9.873688
172030267,3,0.11492168,0.30645782,9.854534
172030269,3,0.11492168,0.30645782,9.835381
172030271,3,0.11492168,0.30645782,9.835381
172030273,3,0.11492168,0.30645782,9.835381
172030275,3,0.11492168,0.31603462,9.835381
172030277,3,0.11492168,0.31603462,9.835381
172030279,3,0.11492168,0.30645782,9.835381
172030281,3,0.12449849,0.30645782,9.844957
172030283,3,0.12449849,0.2873042,9.854534
172030285,3,0.12449849,0.2873042,9.864111
172030287,3,0.12449849,0.30645782,9.873688
172030289,3,0.12449849,0.30645782,9.873688
172030291,3,0.12449849,0.30645782,9.873688
172030293,3,0.12449849,0.31603462,9.864111
172030295,3,0.12449849,0.31603462,9.864111
172030297,3,0.10534488,0.31603462,9.844957
172030299,3,0.10534488,0.31603462,9.844957
172030301,3,0.10534488,0.31603462,9.844957
172030303,3,0.10534488,0.31603462,9.844957
172030305,3,0.11492168,0.31603462,9.844957
172030307,3,0.11492168,0.30645782,9.844957
172030309,3,0.11492168,0.29688102,9.844957
172030311,3,0.11492168,0.29688102,9.844957
172030313,3,0.11492168,0.29688102,9.844957
172030315,3,0.11492168,0.29688102,9.844957
172030317,3,0.11492168,0.29688102,9.844957
172030319,3,0.10534488,0.29688102,9.844957
172030321,3,0.10534488,0.29688102,9.835381
172030323,3,0.10534488,0.29688102,9.835381
172030325,3,0.10534488,0.29688102,9.835381
172030327,3,0.10534488,0.29688102,9.835381
172030329,3,0.10534488,0.29688102,9.835381
172030331,3,0.10534488,0.29688102,9.844957
172030333,3,0.10534488,0.29688102,9.864111
172030335,3,0.10534488,0.29688102,9.864111
172030337,3,0.10534488,0.29688102,9.864111
172030339,3,0.10534488,0.29688102,9.864111
172030341,3,0.10534488,0.29688102,9.864111
172030343,3,0.10534488,0.29688102,9.854534
172030345,3,0.12449849,0.29688102,9.835381
172030347,3,0.12449849,0.29688102,9.835381
172030349,3,0.12449849,0.29688102,9.835381
172030351,3,0.12449849,0.29688102,9.835381
172030353,3,0.12449849,0.29688102,9.835381
172030355,3,0.12449849,0.29688102,9.835381
172030357,3,0.12449849,0.29688102,9.835381
172030359,3,0.12449849,0.29688102,9.854534
172030361,3,0.12449849,0.29688102,9.854534
172030363,3,0.12449849,0.29688102,9.854534
172030365,3,0.12449849,0.29688102,9.854534
172030367,3,0.11492168,0.30645782,9.854534
172030369,3,0.11492168,0.30645782,9.844957
172030371,3,0.11492168,0.31603462,9.835381
172030373,3,0.11492168,0.32561144,9.835381
172030375,3,0.11492168,0.32561144,9.835381
172030377,3,0.11492168,0.32561144,9.835381
172030379,3,0.11492168,0.31603462,9.835381
172030381,3,0.11492168,0.29688102,9.844957
172030383,3,0.11492168,0.29688102,9.844957
172030385,3,0.11492168,0.29688102,9.844957
172030387,3,0.11492168,0.29688102,9.854534
172030389,3,0.10534488,0.29688102,9.864111
172030391,3,0.095768064,0.29688102,9.854534
172030393,3,0.11492168,0.30645782,9.835381
172030395,3,0.12449849,0.31603462,9.835381
172030397,3,0.11492168,0.31603462,9.835381
172030399,3,0.11492168,0.30645782,9.816227
172030401,3,0.11492168,0.29688102,9.816227
172030403,3,0.11492168,0.29688102,9.825804
172030405,3,0.11492168,0.2777274,9.844957
172030407,3,0.11492168,0.2777274,9.854534
172030409,3,0.12449849,0.2777274,9.854534
172030411,3,0.12449849,0.2777274,9.864111
172030413,3,0.12449849,0.2777274,9.864111
172030415,3,0.12449849,0.2873042,9.854534
172030417,3,0.12449849,0.29688102,9.844957
172030419,3,0.12449849,0.31603462,9.825804
172030421,3,0.12449849,0.31603462,9.825804
172030423,3,0.12449849,0.31603462,9.825804
172030425,3,0.12449849,0.33518824,9.825804
172030427,3,0.12449849,0.32561144,9.825804
172030429,3,0.12449849,0.30645782,9.825804
172030431,3,0.12449849,0.30645782,9.835381
172030433,3,0.12449849,0.30645782,9.844957
172030435,3,0.12449849,0.30645782,9.844957
172030437,3,0.12449849,0.30645782,9.844957
172030439,3,0.12449849,0.30645782,9.844957
172030441,3,0.12449849,0.30645782,9.844957
172030443,3,0.12449849,0.30645782,9.844957
172030445,3,0.12449849,0.30645782,9.835381
172030447,3,0.12449849,0.30645782,9.825804
172030449,3,0.12449849,0.30645782,9.825804
172030451,3,0.12449849,0.30645782,9.825804
172030453,3,0.12449849,0.30645782,9.825804
172030455,3,0.12449849,0.30645782,9.825804
172030457,3,0.12449849,0.30645782,9.835381
172030459,3,0.12449849,0.29688102,9.854534
172030461,3,0.12449849,0.2873042,9.854534
172030463,3,0.10534488,0.29688102,9.854534
172030465,3,0.10534488,0.29688102,9.854534
172030467,3,0.10534488,0.29688102,9.854534
172030469,3,0.10534488,0.29688102,9.854534
172030471,3,0.10534488,0.29688102,9.844957
172030473,3,0.12449849,0.29688102,9.844957
172030475,3,0.12449849,0.29688102,9.844957
172030477,3,0.12449849,0.29688102,9.844957
172030479,3,0.12449849,0.29688102,9.844957
172030481,3,0.12449849,0.29688102,9.844957
172030483,3,0.12449849,0.29688102,9.844957
172030485,3,0.12449849,0.29688102,9.844957
172030487,3,0.12449849,0.29688102,9.844957
172030489,3,0.12449849,0.29688102,9.835381
172030491,3,0.12449849,0.29688102,9.825804
172030493,3,0.12449849,0.29688102,9.825804
172030495,3,0.12449849,0.29688102,9.825804
172030497,3,0.12449849,0.29688102,9.825804
172030499,3,0.12449849,0.29688102,9.825804
172030501,3,0.12449849,0.31603462,9.825804
172030503,3,0.12449849,0.31603462,9.825804
172030505,3,0.12449849,0.31603462,9.844957
172030507,3,0.12449849,0.30645782,9.854534
172030509,3,0.12449849,0.29688102,9.854534
172030511,3,0.11492168,0.29688102,9.854534
172030513,3,0.11492168,0.29688102,9.835381
172030515,3,0.11492168,0.29688102,9.816227
172030517,3,0.11492168,0.31603462,9.816227
172030519,3,0.11492168,0.31603462,9.816227
172030521,3,0.12449849,0.31603462,9.816227
172030523,3,0.12449849,0.31603462,9.816227
172030525,3,0.12449849,0.31603462,9.816227
172030527,3,0.12449849,0.29688102,9.825804
172030529,3,0.12449849,0.29688102,9.835381
172030531,3,0.12449849,0.29688102,9.835381
172030533,3,0.12449849,0.29688102,9.835381
172030535,3,0.12449849,0.29688102,9.835381
172030537,3,0.12449849,0.29688102,9.835381
172030539,3,0.12449849,0.29688102,9.835381
172030541,3,0.12449849,0.29688102,9.825804
172030543,3,0.12449849,0.30645782,9.80665
172030545,3,0.11492168,0.31603462,9.80665
172030547,3,0.11492168,0.31603462,9.80665
172030549,3,0.11492168,0.31603462,9.825804
172030551,3,0.11492168,0.31603462,9.835381
172030553,3,0.12449849,0.31603462,9.835381
172030555,3,0.12449849,0.31603462,9.844957
172030557,3,0.12449849,0.31603462,9.854534
172030559,3,0.12449849,0.31603462,9.854534
172030561,3,0.12449849,0.31603462,9.854534
172030563,3,0.12449849,0.31603462,9.854534
172030565,3,0.12449849,0.31603462,9.854534
172030567,3,0.12449849,0.31603462,9.844957
172030569,3,0.12449849,0.31603462,9.844957
172030571,3,0.12449849,0.30645782,9.844957
172030573,3,0.12449849,0.30645782,9.844957
172030575,3,0.12449849,0.30645782,9.844957
172030577,3,0.12449849,0.30645782,9.844957
172030579,3,0.12449849,0.29688102,9.844957
172030581,3,0.12449849,0.2873042,9.844957
172030583,3,0.12449849,0.2873042,9.844957
172030585,3,0.12449849,0.2873042,9.844957
172030587,3,0.12449849,0.2873042,9.844957
172030589,3,0.12449849,0.2873042,9.844957
172030591,3,0.12449849,0.2873042,9.844957
172030593,3,0.12449849,0.2873042,9.844957
172030595,3,0.12449849,0.29688102,9.835381
172030597,3,0.12449849,0.29688102,9.835381
172030599,3,0.12449849,0.29688102,9.835381
172030601,3,0.12449849,0.29688102,9.835381
172030603,3,0.12449849,0.29688102,9.835381
172030605,3,0.12449849,0.29688102,9.844957
172030607,3,0.12449849,0.29688102,9.844957
172030609,3,0.12449849,0.29688102,9.844957
172030611,3,0.11492168,0.29688102,9.844957
172030613,3,0.11492168,0.29688102,9.835381
172030615,3,0.11492168,0.29688102,9.835381
172030617,3,0.11492168,0.29688102,9.835381
172030619,3,0.11492168,0.29688102,9.835381
172030621,3,0.11492168,0.29688102,9.835381
172030623,3,0.11492168,0.29688102,9.835381
172030625,3,0.11492168,0.29688102,9.835381
172030627,3,0.11492168,0.30645782,9.835381
172030629,3,0.11492168,0.30645782,9.835381
172030631,3,0.11492168,0.30645782,9.835381
172030633,3,0.11492168,0.30645782,9.835381
172030635,3,0.11492168,0.30645782,9.835381
172030637,3,0.11492168,0.30645782,9.825804
172030639,3,0.11492168,0.30645782,9.825804
172030641,3,0.11492168,0.30645782,9.825804
172030643,3,0.12449849,0.30645782,9.825804
172030645,3,0.12449849,0.30645782,9.825804
172030647,3,0.12449849,0.30645782,9.825804
172030649,3,0.12449849,0.29688102,9.835381
172030651,3,0.12449849,0.29688102,9.844957
172030653,3,0.12449849,0.29688102,9.844957
172030655,3,0.12449849,0.29688102,9.844957
172030657,3,0.1340753,0.29688102,9.844957
172030659,3,0.1340753,0.29688102,9.844957
172030661,3,0.1340753,0.29688102,9.844957
172030663,3,0.1340753,0.29688102,9.844957
172030665,3,0.1340753,0.29688102,9.835381
172030667,3,0.1340753,0.29688102,9.825804
172030669,3,0.12449849,0.29688102,9.825804
172030671,3,0.12449849,0.29688102,9.825804
172030673,3,0.12449849,0.29688102,9.825804
172030675,3,0.12449849,0.29688102,9.825804
172030677,3,0.12449849,0.29688102,9.835381
172030679,3,0.12449849,0.29688102,9.835381
172030681,3,0.12449849,0.29688102,9.835381
172030683,3,0.12449849,0.29688102,9.835381
172030685,3,0.11492168,0.29688102,9.825804
172030687,3,0.11492168,0.30645782,9.825804
172030689,3,0.11492168,0.30645782,9.825804
172030691,3,0.11492168,0.31603462,9.816227
172030693,3,0.11492168,0.30645782,9.816227
172030695,3,0.10534488,0.30645782,9.816227
172030697,3,0.11492168,0.30645782,9.816227
172030699,3,0.11492168,0.30645782,9.816227
172030701,3,0.11492168,0.31603462,9.816227
172030703,3,0.1340753,0.30645782,9.816227
172030705,3,0.1340753,0.30645782,9.816227
172030707,3,0.1340753,0.30645782,9.816227
172030709,3,0.1340753,0.30645782,9.816227
172030711,3,0.12449849,0.30645782,9.816227
172030713,3,0.12449849,0.30645782,9.816227
172030715,3,0.12449849,0.30645782,9.816227
172030717,3,0.12449849,0.30645782,9.816227
172030719,3,0.12449849,0.30645782,9.825804
172030721,3,0.12449849,0.30645782,9.825804
172030723,3,0.12449849,0.30645782,9.825804
172030725,3,0.12449849,0.30645782,9.825804
172030727,3,0.12449849,0.30645782,9.825804
172030729,3,0.12449849,0.30645782,9.825804
172030731,3,0.11492168,0.30645782,9.825804
172030733,3,0.11492168,0.30645782,9.825804
172030735,3,0.11492168,0.30645782,9.825804
172030737,3,0.11492168,0.30645782,9.825804
172030739,3,0.11492168,0.29688102,9.825804
172030741,3,0.11492168,0.29688102,9.825804
172030743,3,0.11492168,0.29688102,9.825804
172030745,3,0.11492168,0.29688102,9.825804
172030747,3,0.11492168,0.29688102,9.825804
172030749,3,0.11492168,0.29688102,9.825804
172030751,3,0.11492168,0.29688102,9.825804
172030753,3,0.11492168,0.2873042,9.825804
172030755,3,0.11492168,0.2873042,9.825804
172030757,3,0.11492168,0.29688102,9.825804
172030759,3,0.12449849,0.29688102,9.825804
172030761,3,0.12449849,0.29688102,9.825804
172030763,3,0.12449849,0.30645782,9.825804
172030765,3,0.12449849,0.29688102,9.825804
172030767,3,0.12449849,0.31603462,9.825804
172030769,3,0.12449849,0.31603462,9.825804
172030771,3,0.12449849,0.31603462,9.825804
172030773,3,0.12449849,0.31603462,9.825804
172030775,3,0.12449849,0.31603462,9.825804
172030777,3,0.12449849,0.31603462,9.80665
172030779,3,0.12449849,0.31603462,9.80665
172030781,3,0.12449849,0.31603462,9.80665
172030783,3,0.12449849,0.31603462,9.80665
172030785,3,0.12449849,0.31603462,9.80665
172030787,3,0.12449849,0.31603462,9.80665
172030789,3,0.12449849,0.31603462,9.816227
172030791,3,0.12449849,0.31603462,9.816227
172030793,3,0.11492168,0.30645782,9.816227
172030795,3,0.11492168,0.30645782,9.816227
172030797,3,0.11492168,0.30645782,9.816227
172030799,3,0.12449849,0.30645782,9.816227
172030801,3,0.1340753,0.30645782,9.816227
172030803,3,0.1340753,0.30645782,9.816227
172030805,3,0.1340753,0.30645782,9.816227
172030807,3,0.12449849,0.30645782,9.816227
172030809,3,0.12449849,0.30645782,9.816227
172030811,3,0.12449849,0.30645782,9.816227
172030813,3,0.12449849,0.30645782,9.816227
172030815,3,0.12449849,0.30645782,9.825804
172030817,3,0.12449849,0.29688102,9.825804
172030819,3,0.12449849,0.2873042,9.825804
172030821,3,0.12449849,0.2873042,9.816227
172030823,3,0.12449849,0.29688102,9.80665
172030825,3,0.12449849,0.29688102,9.80665
172030827,3,0.1436521,0.29688102,9.80665
172030829,3,0.1436521,0.29688102,9.80665
172030831,3,0.1340753,0.29688102,9.80665
172030833,3,0.1340753,0.29688102,9.816227
172030835,3,0.1340753,0.29688102,9.816227
172030837,3,0.1340753,0.29688102,9.816227
172030839,3,0.1340753,0.2873042,9.816227
172030841,3,0.1340753,0.2873042,9.825804
172030843,3,0.1340753,0.2873042,9.825804
172030845,3,0.1340753,0.2873042,9.825804
172030847,3,0.11492168,0.2873042,9.825804
172030849,3,0.11492168,0.29688102,9.825804
172030851,3,0.11492168,0.29688102,9.816227
172030853,3,0.11492168,0.29688102,9.816227
172030855,3,0.11492168,0.29688102,9.80665
172030857,3,0.11492168,0.30645782,9.80665
172030859,3,0.11492168,0.31603462,9.80665
172030861,3,0.11492168,0.32561144,9.80665
172030863,3,0.11492168,0.31603462,9.80665
172030865,3,0.11492168,0.29688102,9.816227
172030867,3,0.11492168,0.29688102,9.816227
172030869,3,0.12449849,0.29688102,9.816227
172030871,3,0.12449849,0.29688102,9.816227
172030873,3,0.11492168,0.29688102,9.816227
172030875,3,0.11492168,0.29688102,9.80665
172030877,3,0.11492168,0.29688102,9.80665
172030879,3,0.11492168,0.29688102,9.80665
172030881,3,0.12449849,0.30645782,9.80665
172030883,3,0.12449849,0.30645782,9.80665
172030885,3,0.12449849,0.30645782,9.80665
172030887,3,0.12449849,0.31603462,9.80665
172030889,3,0.12449849,0.31603462,9.80665
172030891,3,0.12449849,0.31603462,9.80665
172030893,3,0.12449849,0.31603462,9.80665
172030895,3,0.12449849,0.31603462,9.80665
172030897,3,0.12449849,0.30645782,9.80665
172030899,3,0.12449849,0.30645782,9.80665
172030901,3,0.12449849,0.30645782,9.80665
172030903,3,0.12449849,0.30645782,9.80665
172030905,3,0.12449849,0.30645782,9.80665
172030907,3,0.12449849,0.30645782,9.816227
172030909,3,0.12449849,0.30645782,9.816227
172030911,3,0.12449849,0.30645782,9.816227
172030913,3,0.12449849,0.30645782,9.816227
172030915,3,0.12449849,0.30645782,9.816227
172030917,3,0.12449849,0.30645782,9.816227
172030919,3,0.12449849,0.30645782,9.816227
172030921,3,0.12449849,0.30645782,9.816227
172030923,3,0.12449849,0.30645782,9.816227
172030925,3,0.12449849,0.30645782,9.816227
172030927,3,0.1340753,0.30645782,9.816227
172030929,3,0.1340753,0.30645782,9.816227
172030931,3,0.12449849,0.30645782,9.816227
172030933,3,0.11492168,0.30645782,9.825804
172030935,3,0.11492168,0.30645782,9.825804
172030937,3,0.11492168,0.30645782,9.825804
172030939,3,0.11492168,0.30645782,9.825804
172030941,3,0.12449849,0.30645782,9.825804
172030943,3,0.11492168,0.30645782,9.816227
172030945,3,0.11492168,0.30645782,9.797073
172030947,3,0.11492168,0.30645782,9.787497
172030949,3,0.11492168,0.30645782,9.787497
172030951,3,0.11492168,0.30645782,9.787497
172030953,3,0.11492168,0.30645782,9.797073
172030955,3,0.11492168,0.30645782,9.80665
172030957,3,0.11492168,0.29688102,9.80665
172030959,3,0.11492168,0.29688102,9.816227
172030961,3,0.1340753,0.29688102,9.816227
172030963,3,0.1340753,0.29688102,9.816227
172030965,3,0.1340753,0.29688102,9.816227
172030967,3,0.11492168,0.29688102,9.80665
172030969,3,0.11492168,0.29688102,9.80665
172030971,3,0.11492168,0.29688102,9.80665
172030973,3,0.12449849,0.29688102,9.80665
172030975,3,0.1340753,0.29688102,9.797073
172030977,3,0.1340753,0.30645782,9.797073
172030979,3,0.1340753,0.30645782,9.816227
172030981,3,0.1340753,0.30645782,9.816227
172030983,3,0.1340753,0.30645782,9.816227
172030985,3,0.1340753,0.30645782,9.816227
172030987,3,0.1340753,0.30645782,9.825804
172030989,3,0.1340753,0.30645782,9.825804
172030991,3,0.1340753,0.30645782,9.825804
172030993,3,0.1340753,0.30645782,9.825804
172030995,3,0.1340753,0.30645782,9.825804
172030997,3,0.1340753,0.30645782,9.816227
172030999,3,0.12449849,0.30645782,9.816227
172031001,3,0.11492168,0.30645782,9.816227
172031003,3,0.11492168,0.30645782,9.80665
172031005,3,0.11492168,0.30645782,9.80665
172031007,3,0.11492168,0.29688102,9.80665
172031009,3,0.11492168,0.29688102,9.80665
172031011,3,0.11492168,0.2873042,9.816227
172031013,3,0.12449849,0.2873042,9.816227
172031015,3,0.12449849,0.2873042,9.816227
172031017,3,0.12449849,0.2873042,9.816227
172031019,3,0.12449849,0.2873042,9.816227
172031021,3,0.12449849,0.30645782,9.816227
172031023,3,0.12449849,0.30645782,9.816227
172031025,3,0.12449849,0.30645782,9.816227
172031027,3,0.12449849,0.30645782,9.80665
172031029,3,0.12449849,0.30645782,9.80665
172031031,3,0.12449849,0.30645782,9.80665
172031033,3,0.12449849,0.30645782,9.80665
172031035,3,0.12449849,0.32561144,9.80665
172031037,3,0.12449849,0.31603462,9.816227
172031039,3,0.12449849,0.31603462,9.816227
172031041,3,0.12449849,0.31603462,9.816227
172031043,3,0.12449849,0.30645782,9.816227
172031045,3,0.12449849,0.30645782,9.816227
172031047,3,0.12449849,0.30645782,9.816227
172031049,3,0.12449849,0.30645782,9.816227
172031051,3,0.12449849,0.30645782,9.816227
172031053,3,0.12449849,0.30645782,9.816227
172031055,3,0.12449849,0.30645782,9.816227
172031057,3,0.12449849,0.30645782,9.80665
172031059,3,0.12449849,0.29688102,9.80665
172031061,3,0.12449849,0.29688102,9.80665
172031063,3,0.12449849,0.29688102,9.816227
172031065,3,0.11492168,0.29688102,9.816227
172031067,3,0.11492168,0.30645782,9.816227
172031069,3,0.11492168,0.30645782,9.816227
172031071,3,0.11492168,0.30645782,9.816227
172031073,3,0.11492168,0.29688102,9.816227
172031075,3,0.11492168,0.29688102,9.816227
172031077,3,0.11492168,0.29688102,9.816227
172031079,3,0.11492168,0.29688102,9.816227
172031081,3,0.11492168,0.29688102,9.816227
172031083,3,0.11492168,0.29688102,9.816227
172031085,3,0.12449849,0.29688102,9.816227
172031087,3,0.12449849,0.29688102,9.816227
172031089,3,0.11492168,0.29688102,9.816227
172031091,3,0.11492168,0.30645782,9.816227
172031093,3,0.11492168,0.30645782,9.816227
172031095,3,0.11492168,0.30645782,9.816227
172031097,3,0.11492168,0.30645782,9.816227
172031099,3,0.11492168,0.30645782,9.816227
172031101,3,0.11492168,0.30645782,9.816227
172031103,3,0.11492168,0.30645782,9.816227
172031105,3,0.11492168,0.30645782,9.80665
172031107,3,0.11492168,0.30645782,9.797073
172031109,3,0.1340753,0.30645782,9.797073
172031111,3,0.1340753,0.30645782,9.797073
172031113,3,0.1340753,0.30645782,9.797073
172031115,3,0.12449849,0.30645782,9.797073
172031117,3,0.12449849,0.30645782,9.797073
172031119,3,0.12449849,0.30645782,9.797073
172031121,3,0.11492168,0.30645782,9.797073
172031123,3,0.10534488,0.30645782,9.797073
172031125,3,0.11492168,0.30645782,9.797073
172031127,3,0.11492168,0.30645782,9.797073
172031129,3,0.11492168,0.30645782,9.797073
172031131,3,0.11492168,0.30645782,9.797073
172031133,3,0.12449849,0.30645782,9.797073
172031135,3,0.12449849,0.29688102,9.797073
172031137,3,0.12449849,0.29688102,9.797073
172031139,3,0.12449849,0.29688102,9.797073
172031141,3,0.12449849,0.29688102,9.797073
172031143,3,0.12449849,0.29688102,9.797073
172031145,3,0.12449849,0.29688102,9.797073
172031147,3,0.12449849,0.29688102,9.797073
172031149,3,0.12449849,0.29688102,9.797073
172031151,3,0.12449849,0.29688102,9.797073
172031153,3,0.12449849,0.29688102,9.797073
172031155,3,0.12449849,0.29688102,9.80665
172031157,3,0.12449849,0.29688102,9.80665
172031159,3,0.12449849,0.29688102,9.80665
172031161,3,0.12449849,0.29688102,9.80665
172031163,3,0.12449849,0.29688102,9.80665
172031165,3,0.12449849,0.29688102,9.80665
172031167,3,0.12449849,0.29688102,9.80665
172031169,3,0.12449849,0.29688102,9.80665
172031171,3,0.11492168,0.29688102,9.80665
172031173,3,0.12449849,0.29688102,9.80665
172031175,3,0.12449849,0.29688102,9.80665
172031177,3,0.1340753,0.29688102,9.80665
172031179,3,0.1340753,0.30645782,9.80665
172031181,3,0.1340753,0.30645782,9.80665
172031183,3,0.1340753,0.30645782,9.80665
172031185,3,0.1340753,0.30645782,9.816227
172031187,3,0.1340753,0.30645782,9.816227
172031189,3,0.1340753,0.30645782,9.816227
172031191,3,0.1340753,0.30645782,9.816227
172031193,3,0.1340753,0.30645782,9.797073
172031195,3,0.1340753,0.31603462,9.797073
172031197,3,0.11492168,0.31603462,9.797073
172031199,3,0.10534488,0.30645782,9.797073
172031201,3,0.10534488,0.30645782,9.797073
172031203,3,0.10534488,0.30645782,9.797073
172031205,3,0.11492168,0.30645782,9.797073
172031207,3,0.11492168,0.30645782,9.797073
172031209,3,0.11492168,0.30645782,9.797073
172031211,3,0.11492168,0.30645782,9.797073
172031213,3,0.11492168,0.30645782,9.797073
172031215,3,0.11492168,0.30645782,9.797073
172031217,3,0.11492168,0.30645782,9.797073
172031219,3,0.11492168,0.30645782,9.797073
172031221,3,0.11492168,0.30645782,9.797073
172031223,3,0.11492168,0.30645782,9.797073
172031225,3,0.11492168,0.30645782,9.797073
172031227,3,0.11492168,0.30645782,9.797073
172031229,3,0.11492168,0.30645782,9.797073
172031231,3,0.11492168,0.30645782,9.797073
172031233,3,0.11492168,0.30645782,9.80665
172031235,3,0.11492168,0.30645782,9.80665
172031237,3,0.11492168,0.30645782,9.80665
172031239,3,0.11492168,0.30645782,9.80665
172031241,3,0.11492168,0.29688102,9.80665
172031243,3,0.11492168,0.29688102,9.80665
172031245,3,0.12449849,0.29688102,9.80665
172031247,3,0.12449849,0.29688102,9.80665
172031249,3,0.12449849,0.29688102,9.80665
172031251,3,0.12449849,0.29688102,9.80665
172031253,3,0.12449849,0.29688102,9.80665
172031255,3,0.11492168,0.29688102,9.797073
172031257,3,0.10534488,0.30645782,9.797073
172031259,3,0.11492168,0.30645782,9.797073
172031261,3,0.11492168,0.31603462,9.797073
172031263,3,0.11492168,0.31603462,9.797073
172031265,3,0.12449849,0.31603462,9.797073
172031267,3,0.12449849,0.31603462,9.797073
172031269,3,0.11492168,0.31603462,9.797073
172031271,3,0.11492168,0.31603462,9.797073
172031273,3,0.11492168,0.31603462,9.797073
172031275,3,0.11492168,0.31603462,9.80665
172031277,3,0.11492168,0.31603462,9.80665
172031279,3,0.12449849,0.31603462,9.80665
172031281,3,0.12449849,0.31603462,9.80665
172031283,3,0.12449849,0.31603462,9.80665
172031285,3,0.12449849,0.31603462,9.80665
172031287,3,0.12449849,0.31603462,9.80665
172031289,3,0.1340753,0.31603462,9.80665
172031291,3,0.1340753,0.31603462,9.80665
172031293,3,0.1436521,0.30645782,9.80665
172031295,3,0.1436521,0.30645782,9.80665
172031297,3,0.1436521,0.30645782,9.80665
172031299,3,0.1436521,0.30645782,9.80665
172031301,3,0.1436521,0.30645782,9.80665
172031303,3,0.1340753,0.30645782,9.80665
172031305,3,0.12449849,0.30645782,9.80665
172031307,3,0.12449849,0.29688102,9.80665
172031309,3,0.12449849,0.29688102,9.80665
172031311,3,0.12449849,0.29688102,9.80665
172031313,3,0.12449849,0.29688102,9.797073
172031315,3,0.12449849,0.29688102,9.797073
172031317,3,0.12449849,0.29688102,9.797073
172031319,3,0.12449849,0.29688102,9.797073
172031321,3,0.12449849,0.29688102,9.797073
172031323,3,0.12449849,0.29688102,9.797073
172031325,3,0.12449849,0.29688102,9.797073
172031327,3,0.12449849,0.29688102,9.80665
172031329,3,0.12449849,0.29688102,9.80665
172031331,3,0.12449849,0.29688102,9.80665
172031333,3,0.12449849,0.29688102,9.80665
172031335,3,0.12449849,0.29688102,9.80665
172031337,3,0.12449849,0.29688102,9.80665
172031339,3,0.12449849,0.29688102,9.80665
172031341,3,0.12449849,0.31603462,9.80665
172031343,3,0.12449849,0.31603462,9.80665
172031345,3,0.12449849,0.31603462,9.80665
172031347,3,0.12449849,0.31603462,9.80665
172031349,3,0.12449849,0.31603462,9.80665
172031351,3,0.12449849,0.31603462,9.80665
172031353,3,0.12449849,0.31603462,9.80665
172031355,3,0.12449849,0.31603462,9.787497
172031357,3,0.12449849,0.31603462,9.787497
172031359,3,0.12449849,0.30645782,9.787497
172031361,3,0.12449849,0.30645782,9.787497
172031363,3,0.11492168,0.30645782,9.787497
172031365,3,0.11492168,0.30645782,9.787497
172031367,3,0.11492168,0.30645782,9.787497
172031369,3,0.11492168,0.30645782,9.787497
172031371,3,0.12449849,0.30645782,9.787497
172031373,3,0.12449849,0.30645782,9.797073
172031375,3,0.12449849,0.30645782,9.797073
172031377,3,0.12449849,0.30645782,9.797073
172031379,3,0.1340753,0.30645782,9.797073
172031381,3,0.1340753,0.30645782,9.797073
172031383,3,0.1340753,0.29688102,9.797073
172031385,3,0.1340753,0.29688102,9.816227
172031387,3,0.1340753,0.30645782,9.816227
172031389,3,0.1340753,0.30645782,9.80665
172031391,3,0.1340753,0.30645782,9.80665
172031393,3,0.1340753,0.30645782,9.80665
172031395,3,0.1340753,0.30645782,9.797073
172031397,3,0.12449849,0.30645782,9.797073
172031399,3,0.12449849,0.29688102,9.797073
172031401,3,0.12449849,0.2873042,9.797073
172031403,3,0.12449849,0.2873042,9.797073
172031405,3,0.12449849,0.2873042,9.797073
172031407,3,0.12449849,0.29688102,9.797073
172031409,3,0.12449849,0.29688102,9.797073
172031411,3,0.12449849,0.29688102,9.797073
172031413,3,0.12449849,0.29688102,9.797073
172031415,3,0.12449849,0.29688102,9.80665
172031417,3,0.12449849,0.29688102,9.80665
172031419,3,0.12449849,0.30645782,9.80665
172031421,3,0.11492168,0.30645782,9.80665
172031423,3,0.11492168,0.30645782,9.80665
172031425,3,0.11492168,0.30645782,9.80665
172031427,3,0.12449849,0.30645782,9.80665
172031429,3,0.12449849,0.30645782,9.80665
172031431,3,0.12449849,0.30645782,9.80665
172031433,3,0.12449849,0.29688102,9.80665
172031435,3,0.12449849,0.29688102,9.80665
172031437,3,0.12449849,0.29688102,9.80665
172031439,3,0.12449849,0.29688102,9.80665
172031441,3,0.12449849,0.29688102,9.797073
172031443,3,0.12449849,0.29688102,9.797073
172031445,3,0.12449849,0.29688102,9.797073
172031447,3,0.12449849,0.29688102,9.797073
172031449,3,0.12449849,0.29688102,9.797073
172031451,3,0.12449849,0.29688102,9.797073
172031453,3,0.12449849,0.29688102,9.797073
172031455,3,0.12449849,0.31603462,9.797073
172031457,3,0.12449849,0.31603462,9.797073
172031459,3,0.12449849,0.31603462,9.797073
172031461,3,0.12449849,0.31603462,9.797073
172031463,3,0.12449849,0.30645782,9.797073
172031465,3,0.12449849,0.30645782,9.797073
172031467,3,0.12449849,0.30645782,9.797073
172031469,3,0.12449849,0.30645782,9.797073
172031471,3,0.12449849,0.30645782,9.797073
172031473,3,0.11492168,0.30645782,9.797073
172031475,3,0.11492168,0.30645782,9.797073
172031477,3,0.11492168,0.29688102,9.797073
172031479,3,0.11492168,0.29688102,9.797073
172031481,3,0.11492168,0.30645782,9.797073
172031483,3,0.11492168,0.31603462,9.797073
172031485,3,0.11492168,0.31603462,9.797073
172031487,3,0.11492168,0.30645782,9.797073
172031489,3,0.11492168,0.30645782,9.797073
172031491,3,0.11492168,0.30645782,9.797073
172031493,3,0.11492168,0.30645782,9.797073
172031495,3,0.1340753,0.30645782,9.797073
172031497,3,0.1340753,0.30645782,9.797073
172031499,3,0.1340753,0.30645782,9.80665
172031501,3,0.1340753,0.30645782,9.80665
172031503,3,0.1340753,0.30645782,9.80665
172031505,3,0.1340753,0.30645782,9.80665
172031507,3,0.12449849,0.30645782,9.80665
172031509,3,0.12449849,0.30645782,9.80665
172031511,3,0.12449849,0.30645782,9.797073
172031513,3,0.12449849,0.29688102,9.797073
172031515,3,0.12449849,0.29688102,9.787497
172031517,3,0.12449849,0.29688102,9.787497
172031519,3,0.12449849,0.29688102,9.787497
172031521,3,0.12449849,0.29688102,9.797073
172031523,3,0.12449849,0.29688102,9.797073
172031525,3,0.12449849,0.30645782,9.787497
172031527,3,0.12449849,0.30645782,9.787497
172031529,3,0.12449849,0.29688102,9.787497
172031531,3,0.12449849,0.29688102,9.787497
172031533,3,0.12449849,0.30645782,9.787497
172031535,3,0.12449849,0.30645782,9.787497
172031537,3,0.12449849,0.30645782,9.787497
172031539,3,0.12449849,0.30645782,9.787497
172031541,3,0.12449849,0.30645782,9.787497
172031543,3,0.12449849,0.30645782,9.787497
172031545,3,0.11492168,0.30645782,9.787497
172031547,3,0.11492168,0.30645782,9.787497
172031549,3,0.11492168,0.30645782,9.80665
172031551,3,0.11492168,0.29688102,9.80665
172031553,3,0.11492168,0.2873042,9.80665
172031555,3,0.11492168,0.2873042,9.80665
172031557,3,0.12449849,0.2873042,9.80665
172031559,3,0.12449849,0.2873042,9.80665
172031561,3,0.12449849,0.2873042,9.797073
172031563,3,0.12449849,0.29688102,9.797073
172031565,3,0.12449849,0.30645782,9.797073
172031567,3,0.12449849,0.30645782,9.797073
172031569,3,0.12449849,0.30645782,9.797073
172031571,3,0.12449849,0.30645782,9.797073
172031573,3,0.12449849,0.30645782,9.797073
172031575,3,0.12449849,0.31603462,9.797073
172031577,3,0.12449849,0.31603462,9.797073
172031579,3,0.12449849,0.31603462,9.797073
172031581,3,0.12449849,0.31603462,9.797073
172031583,3,0.12449849,0.31603462,9.797073
172031585,3,0.12449849,0.31603462,9.797073
172031587,3,0.12449849,0.30645782,9.797073
172031589,3,0.12449849,0.30645782,9.797073
172031591,3,0.12449849,0.30645782,9.787497
172031593,3,0.12449849,0.30645782,9.787497
172031595,3,0.12449849,0.30645782,9.787497
172031597,3,0.12449849,0.30645782,9.797073
172031599,3,0.12449849,0.30645782,9.797073
172031601,3,0.12449849,0.30645782,9.797073
172031603,3,0.12449849,0.30645782,9.797073
172031605,3,0.12449849,0.30645782,9.797073
172031607,3,0.12449849,0.31603462,9.797073
172031609,3,0.12449849,0.31603462,9.797073
172031611,3,0.12449849,0.31603462,9.797073
172031613,3,0.12449849,0.31603462,9.797073
172031615,3,0.12449849,0.31603462,9.787497
172031617,3,0.12449849,0.30645782,9.77792
172031619,3,0.12449849,0.29688102,9.77792
172031621,3,0.12449849,0.29688102,9.77792
172031623,3,0.12449849,0.29688102,9.77792
172031625,3,0.12449849,0.29688102,9.77792
172031627,3,0.1340753,0.29688102,9.77792
172031629,3,0.1340753,0.29688102,9.787497
172031631,3,0.1340753,0.29688102,9.787497
172031633,3,0.1340753,0.29688102,9.797073
172031635,3,0.1340753,0.29688102,9.80665
172031637,3,0.1340753,0.29688102,9.80665
172031639,3,0.1340753,0.30645782,9.80665
172031641,3,0.1340753,0.30645782,9.787497
172031643,3,0.12449849,0.30645782,9.787497
172031645,3,0.11492168,0.30645782,9.787497
172031647,3,0.11492168,0.30645782,9.77792
172031649,3,0.11492168,0.30645782,9.77792
172031651,3,0.11492168,0.30645782,9.77792
172031653,3,0.11492168,0.29688102,9.77792
172031655,3,0.11492168,0.2873042,9.77792
172031657,3,0.11492168,0.2873042,9.797073
172031659,3,0.12449849,0.29688102,9.797073
172031661,3,0.12449849,0.29688102,9.797073
172031663,3,0.12449849,0.29688102,9.797073
172031665,3,0.12449849,0.29688102,9.797073
172031667,3,0.12449849,0.29688102,9.787497
172031669,3,0.12449849,0.29688102,9.77792
172031671,3,0.12449849,0.29688102,9.768343
172031673,3,0.12449849,0.29688102,9.768343
172031675,3,0.12449849,0.30645782,9.768343
172031677,3,0.12449849,0.30645782,9.768343
172031679,3,0.12449849,0.30645782,9.768343
172031681,3,0.12449849,0.30645782,9.787497
172031683,3,0.12449849,0.30645782,9.787497
172031685,3,0.12449849,0.30645782,9.787497
172031687,3,0.12449849,0.30645782,9.787497
172031689,3,0.12449849,0.30645782,9.797073
172031691,3,0.12449849,0.30645782,9.797073
172031693,3,0.12449849,0.30645782,9.787497
172031695,3,0.12449849,0.30645782,9.787497
172031697,3,0.12449849,0.30645782,9.77792
172031699,3,0.11492168,0.30645782,9.77792
172031701,3,0.11492168,0.30645782,9.77792
172031703,3,0.11492168,0.29688102,9.77792
172031705,3,0.11492168,0.29688102,9.77792
172031707,3,0.11492168,0.29688102,9.77792
172031709,3,0.11492168,0.29688102,9.77792
172031711,3,0.11492168,0.29688102,9.77792
172031713,3,0.11492168,0.29688102,9.77792
172031715,3,0.11492168,0.29688102,9.77792
172031717,3,0.12449849,0.29688102,9.787497
172031719,3,0.12449849,0.30645782,9.787497
172031721,3,0.12449849,0.30645782,9.787497
172031723,3,0.12449849,0.30645782,9.787497
172031725,3,0.11492168,0.30645782,9.787497
172031727,3,0.11492168,0.30645782,9.787497
172031729,3,0.10534488,0.30645782,9.787497
172031731,3,0.10534488,0.30645782,9.787497
172031733,3,0.12449849,0.30645782,9.787497
172031735,3,0.12449849,0.30645782,9.787497
172031737,3,0.12449849,0.29688102,9.787497
172031739,3,0.12449849,0.29688102,9.787497
172031741,3,0.12449849,0.29688102,9.787497
172031743,3,0.1340753,0.29688102,9.787497
172031745,3,0.1340753,0.29688102,9.787497
172031747,3,0.1340753,0.29688102,9.787497
172031749,3,0.1340753,0.29688102,9.787497
172031751,3,0.11492168,0.29688102,9.787497
172031753,3,0.11492168,0.29688102,9.787497
172031755,3,0.11492168,0.29688102,9.787497
172031757,3,0.11492168,0.29688102,9.77792
172031759,3,0.11492168,0.29688102,9.77792
172031761,3,0.12449849,0.29688102,9.77792
172031763,3,0.12449849,0.29688102,9.77792
172031765,3,0.12449849,0.29688102,9.77792
172031767,3,0.12449849,0.30645782,9.77792
172031769,3,0.12449849,0.30645782,9.77792
172031771,3,0.12449849,0.30645782,9.77792
172031773,3,0.12449849,0.30645782,9.77792
172031775,3,0.12449849,0.30645782,9.77792
172031777,3,0.11492168,0.29688102,9.77792
172031779,3,0.11492168,0.29688102,9.787497
172031781,3,0.11492168,0.29688102,9.787497
172031783,3,0.095768064,0.29688102,9.787497
172031785,3,0.095768064,0.29688102,9.787497
172031787,3,0.10534488,0.30645782,9.787497
172031789,3,0.10534488,0.30645782,9.787497
172031791,3,0.10534488,0.30645782,9.787497
172031793,3,0.10534488,0.30645782,9.787497
172031795,3,0.10534488,0.30645782,9.787497
172031797,3,0.10534488,0.30645782,9.787497
172031799,3,0.10534488,0.30645782,9.787497
172031801,3,0.10534488,0.30645782,9.787497
172031803,3,0.11492168,0.30645782,9.787497
172031805,3,0.11492168,0.30645782,9.787497
172031807,3,0.11492168,0.30645782,9.787497
172031809,3,0.11492168,0.30645782,9.787497
172031811,3,0.11492168,0.30645782,9.787497
172031813,3,0.11492168,0.31603462,9.787497
172031815,3,0.11492168,0.31603462,9.787497
172031817,3,0.11492168,0.31603462,9.787497
172031819,3,0.11492168,0.30645782,9.787497
172031821,3,0.11492168,0.30645782,9.787497
172031823,3,0.11492168,0.30645782,9.787497
172031825,3,0.11492168,0.30645782,9.787497
172031827,3,0.11492168,0.30645782,9.797073
172031829,3,0.10534488,0.30645782,9.797073
172031831,3,0.10534488,0.30645782,9.797073
172031833,3,0.10534488,0.30645782,9.797073
172031835,3,0.10534488,0.30645782,9.787497
172031837,3,0.10534488,0.30645782,9.787497
172031839,3,0.10534488,0.30645782,9.787497
172031841,3,0.10534488,0.30645782,9.787497
172031843,3,0.10534488,0.30645782,9.787497
172031845,3,0.11492168,0.30645782,9.787497
172031847,3,0.11492168,0.30645782,9.787497
172031849,3,0.11492168,0.30645782,9.787497
172031851,3,0.11492168,0.30645782,9.787497
172031853,3,0.11492168,0.30645782,9.787497
172031855,3,0.11492168,0.29688102,9.787497
172031857,3,0.11492168,0.29688102,9.787497
172031859,3,0.11492168,0.29688102,9.787497
172031861,3,0.11492168,0.29688102,9.787497
172031863,3,0.11492168,0.29688102,9.787497
172031865,3,0.11492168,0.29688102,9.787497
172031867,3,0.11492168,0.30645782,9.787497
172031869,3,0.11492168,0.30645782,9.787497
172031871,3,0.11492168,0.30645782,9.787497
172031873,3,0.11492168,0.30645782,9.787497
172031875,3,0.10534488,0.30645782,9.787497
172031877,3,0.10534488,0.30645782,9.787497
172031879,3,0.11492168,0.30645782,9.787497
172031881,3,0.12449849,0.31603462,9.797073
172031883,3,0.12449849,0.30645782,9.797073
172031885,3,0.12449849,0.29688102,9.797073
172031887,3,0.12449849,0.29688102,9.797073
172031889,3,0.12449849,0.29688102,9.797073
172031891,3,0.12449849,0.29688102,9.797073
172031893,3,0.12449849,0.29688102,9.797073
172031895,3,0.12449849,0.29688102,9.797073
172031897,3,0.12449849,0.29688102,9.797073
172031899,3,0.11492168,0.30645782,9.797073
172031901,3,0.11492168,0.30645782,9.797073
172031903,3,0.11492168,0.30645782,9.797073
172031905,3,0.11492168,0.30645782,9.797073
172031907,3,0.11492168,0.30645782,9.797073
172031909,3,0.11492168,0.30645782,9.797073
172031911,3,0.11492168,0.30645782,9.797073
172031913,3,0.11492168,0.30645782,9.797073
172031915,3,0.11492168,0.30645782,9.787497
172031917,3,0.11492168,0.30645782,9.787497
172031919,3,0.11492168,0.30645782,9.768343
172031921,3,0.11492168,0.30645782,9.768343
172031923,3,0.11492168,0.30645782,9.768343
172031925,3,0.11492168,0.30645782,9.768343
172031927,3,0.11492168,0.30645782,9.768343
172031929,3,0.11492168,0.30645782,9.768343
172031931,3,0.11492168,0.30645782,9.768343
172031933,3,0.11492168,0.30645782,9.768343
172031935,3,0.12449849,0.2873042,9.768343
172031937,3,0.12449849,0.29688102,9.787497
172031939,3,0.12449849,0.30645782,9.787497
172031941,3,0.12449849,0.32561144,9.787497
172031943,3,0.12449849,0.32561144,9.787497
172031945,3,0.12449849,0.32561144,9.787497
172031947,3,0.12449849,0.31603462,9.787497
172031949,3,0.12449849,0.31603462,9.787497
172031951,3,0.12449849,0.31603462,9.787497
172031953,3,0.12449849,0.30645782,9.787497
172031955,3,0.12449849,0.29688102,9.787497
172031957,3,0.12449849,0.29688102,9.787497
172031959,3,0.12449849,0.29688102,9.797073
172031961,3,0.12449849,0.30645782,9.797073
172031963,3,0.12449849,0.30645782,9.797073
172031965,3,0.12449849,0.30645782,9.797073
172031967,3,0.12449849,0.30645782,9.797073
172031969,3,0.12449849,0.30645782,9.787497
172031971,3,0.12449849,0.30645782,9.787497
172031973,3,0.12449849,0.30645782,9.787497
172031975,3,0.12449849,0.30645782,9.77792
172031977,3,0.12449849,0.30645782,9.77792
172031979,3,0.11492168,0.30645782,9.77792
172031981,3,0.10534488,0.29688102,9.77792
172031983,3,0.10534488,0.2873042,9.77792
172031985,3,0.10534488,0.2873042,9.77792
172031987,3,0.10534488,0.2873042,9.77792
172031989,3,0.10534488,0.2873042,9.77792
172031991,3,0.10534488,0.2873042,9.77792
172031993,3,0.10534488,0.2873042,9.787497
172031995,3,0.10534488,0.2873042,9.797073
172031997,3,0.10534488,0.29688102,9.797073
172031999,3,0.10534488,0.29688102,9.787497
172032001,3,0.10534488,0.29688102,9.787497
172032003,3,0.10534488,0.29688102,9.787497
172032005,3,0.10534488,0.29688102,9.787497
172032007,3,0.10534488,0.29688102,9.787497
172032009,3,0.10534488,0.30645782,9.77792
172032011,3,0.10534488,0.30645782,9.77792
172032013,3,0.11492168,0.30645782,9.77792
172032015,3,0.11492168,0.30645782,9.787497
172032017,3,0.11492168,0.30645782,9.787497
172032019,3,0.11492168,0.30645782,9.787497
172032021,3,0.11492168,0.30645782,9.787497
172032023,3,0.11492168,0.30645782,9.787497
172032025,3,0.11492168,0.30645782,9.787497
172032027,3,0.11492168,0.30645782,9.787497
172032029,3,0.11492168,0.30645782,9.787497
172032031,3,0.12449849,0.30645782,9.787497
172032033,3,0.12449849,0.30645782,9.787497
172032035,3,0.12449849,0.30645782,9.787497
172032037,3,0.12449849,0.30645782,9.787497
172032039,3,0.12449849,0.30645782,9.787497
172032041,3,0.12449849,0.30645782,9.787497
172032043,3,0.11492168,0.30645782,9.787497
172032045,3,0.10534488,0.30645782,9.787497
172032047,3,0.10534488,0.30645782,9.787497
172032049,3,0.10534488,0.30645782,9.787497
172032051,3,0.11492168,0.30645782,9.787497
172032053,3,0.11492168,0.29688102,9.787497
172032055,3,0.11492168,0.2873042,9.787497
172032057,3,0.11492168,0.29688102,9.787497
172032059,3,0.11492168,0.29688102,9.787497
172032061,3,0.11492168,0.30645782,9.787497
172032063,3,0.11492168,0.30645782,9.77792
172032065,3,0.11492168,0.30645782,9.77792
172032067,3,0.11492168,0.30645782,9.77792
172032069,3,0.11492168,0.30645782,9.77792
172032071,3,0.11492168,0.29688102,9.787497
172032073,3,0.11492168,0.29688102,9.797073
172032075,3,0.11492168,0.29688102,9.797073
172032077,3,0.11492168,0.29688102,9.797073
172032079,3,0.11492168,0.29688102,9.797073
172032081,3,0.12449849,0.29688102,9.797073
172032083,3,0.12449849,0.29688102,9.797073
172032085,3,0.12449849,0.29688102,9.797073
172032087,3,0.12449849,0.29688102,9.797073
172032089,3,0.12449849,0.30645782,9.797073
172032091,3,0.12449849,0.30645782,9.787497
172032093,3,0.11492168,0.30645782,9.787497
172032095,3,0.11492168,0.30645782,9.787497
172032097,3,0.11492168,0.30645782,9.787497
172032099,3,0.11492168,0.30645782,9.787497
172032101,3,0.11492168,0.30645782,9.787497
172032103,3,0.11492168,0.30645782,9.787497
172032105,3,0.11492168,0.30645782,9.787497
172032107,3,0.11492168,0.30645782,9.77792
172032109,3,0.11492168,0.30645782,9.77792
172032111,3,0.12449849,0.30645782,9.77792
172032113,3,0.12449849,0.30645782,9.787497
172032115,3,0.12449849,0.30645782,9.787497
172032117,3,0.12449849,0.30645782,9.787497
172032119,3,0.12449849,0.29688102,9.787497
172032121,3,0.11492168,0.29688102,9.787497
172032123,3,0.10534488,0.30645782,9.787497
172032125,3,0.10534488,0.30645782,9.787497
172032127,3,0.10534488,0.29688102,9.787497
172032129,3,0.10534488,0.29688102,9.787497
172032131,3,0.10534488,0.29688102,9.787497
172032133,3,0.10534488,0.29688102,9.787497
172032135,3,0.10534488,0.29688102,9.787497
172032137,3,0.11492168,0.30645782,9.787497
172032139,3,0.11492168,0.30645782,9.787497
172032141,3,0.11492168,0.30645782,9.787497
172032143,3,0.11492168,0.30645782,9.787497
172032145,3,0.11492168,0.30645782,9.787497
172032147,3,0.11492168,0.30645782,9.787497
172032149,3,0.11492168,0.30645782,9.787497
172032151,3,0.11492168,0.2873042,9.787497
172032153,3,0.11492168,0.2873042,9.77792
172032155,3,0.11492168,0.2873042,9.768343
172032157,3,0.11492168,0.2873042,9.758766
172032159,3,0.11492168,0.2873042,9.758766
172032161,3,0.11492168,0.2873042,9.758766
172032163,3,0.11492168,0.2873042,9.758766
172032165,3,0.11492168,0.2873042,9.758766
172032167,3,0.12449849,0.2873042,9.768343
172032169,3,0.12449849,0.29688102,9.768343
172032171,3,0.12449849,0.29688102,9.787497
172032173,3,0.12449849,0.29688102,9.787497
172032175,3,0.12449849,0.29688102,9.787497
172032177,3,0.12449849,0.30645782,9.787497
172032179,3,0.11492168,0.30645782,9.787497
172032181,3,0.11492168,0.30645782,9.787497
172032183,3,0.11492168,0.30645782,9.787497
172032185,3,0.11492168,0.30645782,9.787497
172032187,3,0.11492168,0.30645782,9.787497
172032189,3,0.11492168,0.30645782,9.787497
172032191,3,0.12449849,0.30645782,9.787497
172032193,3,0.12449849,0.30645782,9.787497
172032195,3,0.12449849,0.30645782,9.787497
172032197,3,0.12449849,0.29688102,9.787497
172032199,3,0.12449849,0.2873042,9.787497
172032201,3,0.12449849,0.2873042,9.77792
172032203,3,0.12449849,0.2873042,9.77792
172032205,3,0.12449849,0.2873042,9.77792
172032207,3,0.1340753,0.29688102,9.77792
172032209,3,0.1340753,0.29688102,9.77792
172032211,3,0.1340753,0.29688102,9.77792
172032213,3,0.1340753,0.29688102,9.787497
172032215,3,0.12449849,0.29688102,9.797073
172032217,3,0.12449849,0.29688102,9.797073
172032219,3,0.12449849,0.29688102,9.797073
172032221,3,0.12449849,0.29688102,9.797073
172032223,3,0.12449849,0.29688102,9.797073
172032225,3,0.12449849,0.29688102,9.797073
172032227,3,0.12449849,0.29688102,9.797073
172032229,3,0.12449849,0.29688102,9.797073
172032231,3,0.12449849,0.29688102,9.797073
172032233,3,0.12449849,0.30645782,9.797073
172032235,3,0.12449849,0.30645782,9.787497
172032237,3,0.12449849,0.30645782,9.787497
172032239,3,0.12449849,0.30645782,9.787497
172032241,3,0.12449849,0.30645782,9.787497
172032243,3,0.12449849,0.30645782,9.787497
172032245,3,0.12449849,0.30645782,9.787497
172032247,3,0.12449849,0.30645782,9.787497
172032249,3,0.12449849,0.30645782,9.77792
172032251,3,0.12449849,0.30645782,9.77792
172032253,3,0.12449849,0.30645782,9.77792
172032255,3,0.12449849,0.30645782,9.77792
172032257,3,0.12449849,0.30645782,9.77792
172032259,3,0.12449849,0.29688102,9.77792
172032261,3,0.12449849,0.29688102,9.77792
172032263,3,0.12449849,0.29688102,9.797073
172032265,3,0.11492168,0.29688102,9.797073
172032267,3,0.10534488,0.29688102,9.797073
172032269,3,0.11492168,0.29688102,9.797073
172032271,3,0.12449849,0.29688102,9.797073
172032273,3,0.12449849,0.29688102,9.797073
172032275,3,0.12449849,0.29688102,9.797073
172032277,3,0.12449849,0.29688102,9.797073
172032279,3,0.12449849,0.29688102,9.797073
172032281,3,0.12449849,0.29688102,9.797073
172032283,3,0.12449849,0.29688102,9.797073
172032285,3,0.12449849,0.29688102,9.797073
172032287,3,0.12449849,0.30645782,9.797073
172032289,3,0.12449849,0.30645782,9.797073
172032291,3,0.10534488,0.30645782,9.797073
172032293,3,0.10534488,0.30645782,9.797073
172032295,3,0.10534488,0.30645782,9.797073
172032297,3,0.10534488,0.30645782,9.797073
172032299,3,0.10534488,0.30645782,9.797073
172032301,3,0.11492168,0.30645782,9.797073
172032303,3,0.11492168,0.29688102,9.797073
172032305,3,0.11492168,0.29688102,9.797073
172032307,3,0.11492168,0.30645782,9.797073
172032309,3,0.11492168,0.30645782,9.797073
172032311,3,0.11492168,0.30645782,9.797073
172032313,3,0.11492168,0.30645782,9.80665
172032315,3,0.11492168,0.30645782,9.80665
172032317,3,0.11492168,0.30645782,9.80665
172032319,3,0.11492168,0.30645782,9.80665
172032321,3,0.11492168,0.30645782,9.80665
172032323,3,0.11492168,0.30645782,9.797073
172032325,3,0.11492168,0.30645782,9.787497
172032327,3,0.11492168,0.30645782,9.77792
172032329,3,0.10534488,0.30645782,9.77792
172032331,3,0.11492168,0.30645782,9.77792
172032333,3,0.12449849,0.30645782,9.77792
172032335,3,0.12449849,0.30645782,9.77792
172032337,3,0.12449849,0.30645782,9.77792
172032339,3,0.12449849,0.29688102,9.77792
172032341,3,0.12449849,0.29688102,9.787497
172032343,3,0.12449849,0.29688102,9.797073
172032345,3,0.12449849,0.29688102,9.80665
172032347,3,0.12449849,0.29688102,9.80665
172032349,3,0.12449849,0.29688102,9.80665
172032351,3,0.12449849,0.29688102,9.80665
172032353,3,0.12449849,0.30645782,9.80665
172032355,3,0.12449849,0.30645782,9.80665
172032357,3,0.12449849,0.30645782,9.797073
172032359,3,0.11492168,0.30645782,9.797073
172032361,3,0.10534488,0.30645782,9.797073
172032363,3,0.11492168,0.30645782,9.797073
172032365,3,0.11492168,0.30645782,9.797073
172032367,3,0.11492168,0.30645782,9.797073
172032369,3,0.11492168,0.30645782,9.797073
172032371,3,0.11492168,0.30645782,9.797073
172032373,3,0.11492168,0.30645782,9.797073
172032375,3,0.11492168,0.30645782,9.797073
172032377,3,0.11492168,0.30645782,9.797073
172032379,3,0.11492168,0.30645782,9.797073
172032381,3,0.11492168,0.30645782,9.797073
172032383,3,0.11492168,0.30645782,9.797073
172032385,3,0.11492168,0.30645782,9.797073
172032387,3,0.11492168,0.31603462,9.797073
172032389,3,0.11492168,0.31603462,9.797073
172032391,3,0.11492168,0.31603462,9.797073
172032393,3,0.11492168,0.31603462,9.797073
172032395,3,0.12449849,0.31603462,9.797073
172032397,3,0.12449849,0.31603462,9.797073
172032399,3,0.12449849,0.31603462,9.797073
172032401,3,0.12449849,0.31603462,9.797073
172032403,3,0.12449849,0.31603462,9.797073
172032405,3,0.12449849,0.31603462,9.797073
172032407,3,0.12449849,0.31603462,9.797073
172032409,3,0.12449849,0.31603462,9.797073
172032411,3,0.1340753,0.31603462,9.797073
172032413,3,0.1340753,0.31603462,9.797073
172032415,3,0.1340753,0.31603462,9.797073
172032417,3,0.12449849,0.31603462,9.797073
172032419,3,0.12449849,0.31603462,9.797073
172032421,3,0.12449849,0.31603462,9.797073
172032423,3,0.12449849,0.31603462,9.797073
172032425,3,0.12449849,0.31603462,9.797073
172032427,3,0.12449849,0.31603462,9.787497
172032429,3,0.12449849,0.31603462,9.787497
172032431,3,0.12449849,0.31603462,9.787497
172032433,3,0.12449849,0.31603462,9.787497
172032435,3,0.12449849,0.31603462,9.787497
172032437,3,0.12449849,0.31603462,9.787497
172032439,3,0.12449849,0.31603462,9.787497
172032441,3,0.12449849,0.31603462,9.787497
172032443,3,0.12449849,0.31603462,9.787497
172032445,3,0.12449849,0.29688102,9.787497
172032447,3,0.12449849,0.30645782,9.797073
172032449,3,0.12449849,0.30645782,9.797073
172032451,3,0.12449849,0.30645782,9.797073
172032453,3,0.12449849,0.30645782,9.797073
172032455,3,0.12449849,0.30645782,9.797073
172032457,3,0.12449849,0.30645782,9.797073
172032459,3,0.12449849,0.30645782,9.797073
172032461,3,0.12449849,0.30645782,9.797073
172032463,3,0.12449849,0.30645782,9.797073
172032465,3,0.11492168,0.30645782,9.797073
172032467,3,0.11492168,0.30645782,9.797073
172032469,3,0.11492168,0.30645782,9.797073
172032471,3,0.11492168,0.29688102,9.797073
172032473,3,0.11492168,0.29688102,9.797073
172032475,3,0.11492168,0.30645782,9.797073
172032477,3,0.11492168,0.30645782,9.797073
172032479,3,0.11492168,0.30645782,9.797073
172032481,3,0.11492168,0.30645782,9.80665
172032483,3,0.11492168,0.30645782,9.787497
172032485,3,0.11492168,0.30645782,9.787497
172032487,3,0.11492168,0.30645782,9.787497
172032489,3,0.11492168,0.30645782,9.787497
172032491,3,0.11492168,0.30645782,9.787497
172032493,3,0.11492168,0.30645782,9.787497
172032495,3,0.11492168,0.30645782,9.787497
172032497,3,0.11492168,0.29688102,9.787497
172032499,3,0.11492168,0.29688102,9.787497
172032501,3,0.11492168,0.29688102,9.787497
172032503,3,0.11492168,0.29688102,9.787497
172032505,3,0.11492168,0.29688102,9.787497
172032507,3,0.11492168,0.31603462,9.787497
172032509,3,0.10534488,0.31603462,9.787497
172032511,3,0.10534488,0.31603462,9.787497
172032513,3,0.10534488,0.31603462,9.787497
172032515,3,0.10534488,0.31603462,9.787497
172032517,3,0.11492168,0.31603462,9.787497
172032519,3,0.11492168,0.30645782,9.787497
172032521,3,0.11492168,0.30645782,9.77792
172032523,3,0.11492168,0.30645782,9.77792
172032525,3,0.11492168,0.30645782,9.77792
172032527,3,0.11492168,0.30645782,9.77792
172032529,3,0.11492168,0.30645782,9.787497
172032531,3,0.11492168,0.31603462,9.80665
172032533,3,0.11492168,0.31603462,9.80665
172032535,3,0.11492168,0.31603462,9.80665
172032537,3,0.11492168,0.31603462,9.80665
172032539,3,0.11492168,0.31603462,9.797073
172032541,3,0.11492168,0.31603462,9.797073
172032543,3,0.11492168,0.31603462,9.797073
172032545,3,0.11492168,0.31603462,9.787497
172032547,3,0.11492168,0.31603462,9.787497
172032549,3,0.11492168,0.31603462,9.787497
172032551,3,0.11492168,0.30645782,9.787497
172032553,3,0.11492168,0.30645782,9.787497
172032555,3,0.11492168,0.30645782,9.787497
172032557,3,0.12449849,0.30645782,9.787497
172032559,3,0.12449849,0.30645782,9.787497
172032561,3,0.12449849,0.30645782,9.787497
172032563,3,0.12449849,0.30645782,9.787497
172032565,3,0.12449849,0.29688102,9.787497
172032567,3,0.12449849,0.29688102,9.787497
172032569,3,0.12449849,0.29688102,9.787497
172032571,3,0.12449849,0.29688102,9.787497
172032573,3,0.11492168,0.29688102,9.787497
172032575,3,0.11492168,0.29688102,9.77792
172032577,3,0.11492168,0.29688102,9.77792
172032579,3,0.11492168,0.29688102,9.77792
172032581,3,0.11492168,0.29688102,9.77792
172032583,3,0.11492168,0.29688102,9.77792
172032585,3,0.11492168,0.29688102,9.77792
172032587,3,0.11492168,0.29688102,9.77792
172032589,3,0.11492168,0.29688102,9.77792
172032591,3,0.12449849,0.29688102,9.77792
172032593,3,0.12449849,0.29688102,9.77792
172032595,3,0.12449849,0.29688102,9.77792
172032597,3,0.12449849,0.29688102,9.797073
172032599,3,0.12449849,0.29688102,9.797073
172032601,3,0.12449849,0.29688102,9.797073
172032603,3,0.12449849,0.29688102,9.797073
172032605,3,0.12449849,0.29688102,9.797073
172032607,3,0.12449849,0.30645782,9.797073
172032609,3,0.12449849,0.30645782,9.797073
172032611,3,0.12449849,0.30645782,9.797073
172032613,3,0.12449849,0.30645782,9.797073
172032615,3,0.12449849,0.30645782,9.797073
172032617,3,0.12449849,0.30645782,9.797073
172032619,3,0.12449849,0.30645782,9.797073
172032621,3,0.12449849,0.30645782,9.797073
172032623,3,0.12449849,0.30645782,9.797073
172032625,3,0.12449849,0.30645782,9.797073
172032627,3,0.12449849,0.30645782,9.797073
172032629,3,0.12449849,0.30645782,9.797073
172032631,3,0.12449849,0.30645782,9.797073
172032633,3,0.12449849,0.30645782,9.797073
172032635,3,0.12449849,0.2873042,9.77792
172032637,3,0.12449849,0.29688102,9.77792
172032639,3,0.12449849,0.29688102,9.77792
172032641,3,0.12449849,0.29688102,9.77792
172032643,3,0.12449849,0.29688102,9.77792
172032645,3,0.12449849,0.29688102,9.787497
172032647,3,0.12449849,0.29688102,9.787497
172032649,3,0.10534488,0.29688102,9.787497
172032651,3,0.10534488,0.29688102,9.787497
172032653,3,0.10534488,0.29688102,9.797073
172032655,3,0.10534488,0.29688102,9.797073
172032657,3,0.10534488,0.30645782,9.797073
172032659,3,0.10534488,0.30645782,9.797073
172032661,3,0.10534488,0.30645782,9.797073
172032663,3,0.11492168,0.30645782,9.797073
172032665,3,0.11492168,0.30645782,9.797073
172032667,3,0.11492168,0.30645782,9.787497
172032669,3,0.11492168,0.30645782,9.787497
172032671,3,0.11492168,0.30645782,9.787497
172032673,3,0.1340753,0.30645782,9.787497
172032675,3,0.12449849,0.30645782,9.797073
172032677,3,0.11492168,0.30645782,9.797073
172032679,3,0.11492168,0.30645782,9.797073
172032681,3,0.11492168,0.30645782,9.797073
172032683,3,0.11492168,0.2873042,9.797073
172032685,3,0.11492168,0.2873042,9.797073
172032687,3,0.12449849,0.2873042,9.797073
172032689,3,0.12449849,0.30645782,9.797073
172032691,3,0.12449849,0.31603462,9.787497
172032693,3,0.12449849,0.31603462,9.787497
172032695,3,0.12449849,0.31603462,9.787497
172032697,3,0.12449849,0.30645782,9.787497
172032699,3,0.12449849,0.30645782,9.787497
172032701,3,0.12449849,0.30645782,9.797073
172032703,3,0.12449849,0.30645782,9.797073
172032705,3,0.12449849,0.30645782,9.797073
172032707,3,0.12449849,0.30645782,9.797073
172032709,3,0.12449849,0.30645782,9.797073
172032711,3,0.12449849,0.30645782,9.797073
172032713,3,0.12449849,0.30645782,9.797073
172032715,3,0.12449849,0.30645782,9.797073
172032717,3,0.12449849,0.30645782,9.797073
172032719,3,0.12449849,0.30645782,9.797073
172032721,3,0.12449849,0.30645782,9.797073
172032723,3,0.12449849,0.30645782,9.797073
172032725,3,0.12449849,0.30645782,9.797073
172032727,3,0.12449849,0.29688102,9.797073
172032729,3,0.12449849,0.29688102,9.797073
172032731,3,0.12449849,0.29688102,9.797073
172032733,3,0.12449849,0.30645782,9.797073
172032735,3,0.12449849,0.30645782,9.797073
172032737,3,0.11492168,0.30645782,9.797073
172032739,3,0.10534488,0.30645782,9.797073
172032741,3,0.10534488,0.30645782,9.787497
172032743,3,0.11492168,0.30645782,9.787497
172032745,3,0.12449849,0.30645782,9.787497
172032747,3,0.12449849,0.30645782,9.787497
172032749,3,0.12449849,0.30645782,9.787497
172032751,3,0.12449849,0.30645782,9.787497
172032753,3,0.12449849,0.30645782,9.787497
172032755,3,0.12449849,0.30645782,9.787497
172032757,3,0.11492168,0.30645782,9.787497
172032759,3,0.11492168,0.30645782,9.787497
172032761,3,0.11492168,0.30645782,9.787497
172032763,3,0.11492168,0.30645782,9.787497
172032765,3,0.11492168,0.30645782,9.787497
172032767,3,0.11492168,0.30645782,9.787497
172032769,3,0.11492168,0.30645782,9.787497
172032771,3,0.1340753,0.30645782,9.77792
172032773,3,0.1340753,0.30645782,9.77792
172032775,3,0.11492168,0.30645782,9.77792
172032777,3,0.11492168,0.30645782,9.77792
172032779,3,0.12449849,0.30645782,9.77792
172032781,3,0.12449849,0.30645782,9.787497
172032783,3,0.12449849,0.31603462,9.797073
172032785,3,0.12449849,0.31603462,9.797073
172032787,3,0.12449849,0.29688102,9.797073
172032789,3,0.12449849,0.29688102,9.797073
172032791,3,0.12449849,0.29688102,9.797073
172032793,3,0.12449849,0.30645782,9.797073
172032795,3,0.1340753,0.30645782,9.797073
172032797,3,0.1340753,0.30645782,9.797073
172032799,3,0.1340753,0.30645782,9.797073
172032801,3,0.1340753,0.30645782,9.797073
172032803,3,0.1340753,0.30645782,9.797073
172032805,3,0.1340753,0.30645782,9.797073
172032807,3,0.1340753,0.30645782,9.797073
172032809,3,0.1340753,0.30645782,9.797073
172032811,3,0.12449849,0.30645782,9.797073
172032813,3,0.11492168,0.30645782,9.797073
172032815,3,0.11492168,0.30645782,9.80665
172032817,3,0.11492168,0.32561144,9.816227
172032819,3,0.11492168,0.32561144,9.797073
172032821,3,0.11492168,0.32561144,9.797073
172032823,3,0.10534488,0.32561144,9.797073
172032825,3,0.10534488,0.32561144,9.787497
172032827,3,0.12449849,0.31603462,9.787497
172032829,3,0.12449849,0.31603462,9.787497
172032831,3,0.12449849,0.31603462,9.787497
172032833,3,0.12449849,0.31603462,9.787497
172032835,3,0.12449849,0.31603462,9.787497
172032837,3,0.12449849,0.31603462,9.787497
172032839,3,0.12449849,0.31603462,9.797073
172032841,3,0.12449849,0.31603462,9.797073
172032843,3,0.12449849,0.31603462,9.797073
172032845,3,0.12449849,0.31603462,9.787497
172032847,3,0.12449849,0.31603462,9.787497
172032849,3,0.12449849,0.31603462,9.787497
172032851,3,0.12449849,0.31603462,9.787497
172032853,3,0.12449849,0.31603462,9.787497
172032855,3,0.12449849,0.31603462,9.787497
172032857,3,0.10534488,0.31603462,9.787497
172032859,3,0.10534488,0.30645782,9.797073
172032861,3,0.10534488,0.30645782,9.797073
172032863,3,0.10534488,0.30645782,9.797073
172032865,3,0.10534488,0.30645782,9.797073
172032867,3,0.10534488,0.30645782,9.797073
172032869,3,0.10534488,0.30645782,9.787497
172032871,3,0.10534488,0.30645782,9.787497
172032873,3,0.10534488,0.30645782,9.787497
172032875,3,0.10534488,0.30645782,9.787497
172032877,3,0.10534488,0.30645782,9.77792
172032879,3,0.11492168,0.30645782,9.77792
172032881,3,0.11492168,0.29688102,9.77792
172032883,3,0.11492168,0.29688102,9.77792
172032885,3,0.11492168,0.29688102,9.787497
172032887,3,0.11492168,0.29688102,9.787497
172032889,3,0.11492168,0.29688102,9.787497
172032891,3,0.11492168,0.29688102,9.787497
172032893,3,0.11492168,0.29688102,9.787497
172032895,3,0.11492168,0.30645782,9.787497
172032897,3,0.12449849,0.30645782,9.77792
172032899,3,0.12449849,0.30645782,9.77792
172032901,3,0.12449849,0.30645782,9.77792
172032903,3,0.12449849,0.31603462,9.77792
172032905,3,0.11492168,0.31603462,9.787497
172032907,3,0.11492168,0.31603462,9.797073
172032909,3,0.11492168,0.31603462,9.797073
172032911,3,0.1340753,0.31603462,9.797073
172032913,3,0.1340753,0.31603462,9.797073
172032915,3,0.1340753,0.31603462,9.797073
172032917,3,0.1340753,0.30645782,9.797073
172032919,3,0.1340753,0.30645782,9.787497
172032921,3,0.1340753,0.30645782,9.787497
172032923,3,0.1340753,0.30645782,9.787497
172032925,3,0.1340753,0.30645782,9.787497
172032927,3,0.12449849,0.29688102,9.787497
172032929,3,0.12449849,0.29688102,9.787497
172032931,3,0.12449849,0.29688102,9.787497
172032933,3,0.11492168,0.29688102,9.787497
172032935,3,0.11492168,0.29688102,9.787497
172032937,3,0.11492168,0.29688102,9.787497
172032939,3,0.12449849,0.29688102,9.787497
172032941,3,0.12449849,0.29688102,9.787497
172032943,3,0.12449849,0.29688102,9.787497
172032945,3,0.12449849,0.29688102,9.77792
172032947,3,0.12449849,0.29688102,9.768343
172032949,3,0.12449849,0.29688102,9.768343
172032951,3,0.12449849,0.29688102,9.768343
172032953,3,0.12449849,0.30645782,9.768343
172032955,3,0.11492168,0.30645782,9.768343
172032957,3,0.10534488,0.30645782,9.768343
172032959,3,0.11492168,0.30645782,9.768343
172032961,3,0.11492168,0.30645782,9.768343
172032963,3,0.11492168,0.29688102,9.768343
172032965,3,0.11492168,0.29688102,9.77792
172032967,3,0.11492168,0.30645782,9.77792
172032969,3,0.11492168,0.30645782,9.77792
172032971,3,0.11492168,0.30645782,9.787497
172032973,3,0.11492168,0.30645782,9.787497
172032975,3,0.11492168,0.30645782,9.787497
172032977,3,0.11492168,0.30645782,9.787497
172032979,3,0.11492168,0.31603462,9.787497
172032981,3,0.11492168,0.31603462,9.787497
172032983,3,0.11492168,0.31603462,9.787497
172032985,3,0.11492168,0.31603462,9.787497
172032987,3,0.11492168,0.31603462,9.787497
172032989,3,0.11492168,0.29688102,9.787497
172032991,3,0.11492168,0.29688102,9.787497
172032993,3,0.11492168,0.29688102,9.787497
172032995,3,0.12449849,0.29688102,9.787497
172032997,3,0.12449849,0.29688102,9.787497
172032999,3,0.12449849,0.29688102,9.787497
172033001,3,0.11492168,0.29688102,9.787497
172033003,3,0.11492168,0.29688102,9.787497
172033005,3,0.11492168,0.29688102,9.787497
172033007,3,0.11492168,0.29688102,9.787497
172033009,3,0.11492168,0.29688102,9.787497
172033011,3,0.11492168,0.29688102,9.787497
172033013,3,0.11492168,0.29688102,9.787497
172033015,3,0.11492168,0.29688102,9.787497
172033017,3,0.10534488,0.29688102,9.787497
172033019,3,0.10534488,0.29688102,9.787497
172033021,3,0.10534488,0.29688102,9.787497
172033023,3,0.10534488,0.30645782,9.787497
172033025,3,0.11492168,0.30645782,9.787497
172033027,3,0.11492168,0.30645782,9.787497
172033029,3,0.11492168,0.31603462,9.787497
172033031,3,0.11492168,0.31603462,9.787497
172033033,3,0.11492168,0.31603462,9.787497
172033035,3,0.11492168,0.31603462,9.787497
172033037,3,0.12449849,0.31603462,9.787497
172033039,3,0.12449849,0.31603462,9.787497
172033041,3,0.12449849,0.31603462,9.787497
172033043,3,0.12449849,0.30645782,9.787497
172033045,3,0.12449849,0.30645782,9.787497
172033047,3,0.1340753,0.30645782,9.787497
172033049,3,0.1340753,0.30645782,9.787497
172033051,3,0.11492168,0.30645782,9.787497
172033053,3,0.11492168,0.29688102,9.787497
172033055,3,0.11492168,0.29688102,9.787497
172033057,3,0.11492168,0.29688102,9.787497
172033059,3,0.11492168,0.29688102,9.787497
172033061,3,0.11492168,0.30645782,9.77792
172033063,3,0.11492168,0.30645782,9.77792
172033065,3,0.11492168,0.30645782,9.77792
172033067,3,0.11492168,0.30645782,9.787497
172033069,3,0.11492168,0.30645782,9.787497
172033071,3,0.11492168,0.30645782,9.787497
172033073,3,0.11492168,0.30645782,9.787497
172033075,3,0.11492168,0.30645782,9.787497
172033077,3,0.11492168,0.30645782,9.787497
172033079,3,0.12449849,0.30645782,9.787497
172033081,3,0.12449849,0.30645782,9.787497
172033083,3,0.12449849,0.30645782,9.787497
172033085,3,0.12449849,0.30645782,9.787497
172033087,3,0.12449849,0.30645782,9.787497
172033089,3,0.12449849,0.30645782,9.787497
172033091,3,0.12449849,0.30645782,9.787497
172033093,3,0.12449849,0.30645782,9.787497
172033095,3,0.12449849,0.30645782,9.787497
172033097,3,0.12449849,0.30645782,9.77792
172033099,3,0.12449849,0.30645782,9.77792
172033101,3,0.12449849,0.30645782,9.77792
172033103,3,0.12449849,0.30645782,9.77792
172033105,3,0.12449849,0.30645782,9.77792
172033107,3,0.12449849,0.30645782,9.77792
172033109,3,0.12449849,0.30645782,9.77792
172033111,3,0.12449849,0.30645782,9.77792
172033113,3,0.12449849,0.30645782,9.77792
172033115,3,0.12449849,0.29688102,9.77792
172033117,3,0.12449849,0.29688102,9.77792
172033119,3,0.12449849,0.29688102,9.77792
172033121,3,0.11492168,0.29688102,9.77792
172033123,3,0.11492168,0.30645782,9.77792
172033125,3,0.11492168,0.30645782,9.77792
172033127,3,0.11492168,0.2873042,9.77792
172033129,3,0.11492168,0.2873042,9.77792
172033131,3,0.11492168,0.2873042,9.77792
172033133,3,0.11492168,0.29688102,9.77792
172033135,3,0.11492168,0.29688102,9.77792
172033137,3,0.11492168,0.29688102,9.77792
172033139,3,0.11492168,0.29688102,9.77792
172033141,3,0.11492168,0.29688102,9.77792
172033143,3,0.11492168,0.29688102,9.77792
172033145,3,0.11492168,0.29688102,9.77792
172033147,3,0.11492168,0.30645782,9.77792
172033149,3,0.11492168,0.30645782,9.77792
172033151,3,0.11492168,0.30645782,9.77792
172033153,3,0.10534488,0.30645782,9.77792
172033155,3,0.10534488,0.30645782,9.77792
172033157,3,0.11492168,0.30645782,9.77792
172033159,3,0.11492168,0.30645782,9.77792
172033161,3,0.11492168,0.30645782,9.77792
172033163,3,0.11492168,0.30645782,9.77792
172033165,3,0.11492168,0.30645782,9.77792
172033167,3,0.12449849,0.30645782,9.77792
172033169,3,0.12449849,0.30645782,9.77792
172033171,3,0.12449849,0.30645782,9.77792
172033173,3,0.12449849,0.30645782,9.77792
172033175,3,0.11492168,0.30645782,9.77792
172033177,3,0.11492168,0.30645782,9.77792
172033179,3,0.11492168,0.30645782,9.77792
172033181,3,0.11492168,0.30645782,9.77792
172033183,3,0.11492168,0.30645782,9.77792
172033185,3,0.11492168,0.30645782,9.77792
172033187,3,0.11492168,0.30645782,9.77792
172033189,3,0.11492168,0.30645782,9.77792
172033191,3,0.11492168,0.30645782,9.77792
172033193,3,0.11492168,0.2873042,9.77792
172033195,3,0.11492168,0.2777274,9.77792
172033197,3,0.11492168,0.29688102,9.77792
172033199,3,0.11492168,0.30645782,9.77792
172033201,3,0.11492168,0.30645782,9.77792
172033203,3,0.11492168,0.30645782,9.77792
172033205,3,0.11492168,0.30645782,9.77792
172033207,3,0.11492168,0.30645782,9.77792
172033209,3,0.11492168,0.30645782,9.77792
172033211,3,0.12449849,0.29688102,9.77792
172033213,3,0.12449849,0.29688102,9.77792
172033215,3,0.12449849,0.29688102,9.77792
172033217,3,0.12449849,0.30645782,9.77792
172033219,3,0.12449849,0.30645782,9.77792
172033221,3,0.11492168,0.30645782,9.77792
172033223,3,0.11492168,0.30645782,9.77792
172033225,3,0.11492168,0.30645782,9.77792
172033227,3,0.11492168,0.30645782,9.77792
172033229,3,0.12449849,0.30645782,9.77792
172033231,3,0.12449849,0.30645782,9.77792
172033233,3,0.12449849,0.30645782,9.77792
172033235,3,0.12449849,0.30645782,9.77792
172033237,3,0.10534488,0.30645782,9.77792
172033239,3,0.095768064,0.30645782,9.77792
172033241,3,0.095768064,0.30645782,9.77792
172033243,3,0.095768064,0.30645782,9.787497
172033245,3,0.095768064,0.30645782,9.787497
172033247,3,0.095768064,0.30645782,9.787497
172033249,3,0.095768064,0.30645782,9.787497
172033251,3,0.11492168,0.30645782,9.787497
172033253,3,0.11492168,0.30645782,9.787497
172033255,3,0.11492168,0.30645782,9.77792
172033257,3,0.11492168,0.30645782,9.758766
172033259,3,0.1340753,0.30645782,9.758766
172033261,3,0.1340753,0.29688102,9.758766
172033263,3,0.1340753,0.29688102,9.758766
172033265,3,0.12449849,0.30645782,9.768343
172033267,3,0.11492168,0.30645782,9.768343
172033269,3,0.11492168,0.30645782,9.77792
172033271,3,0.11492168,0.30645782,9.77792
172033273,3,0.11492168,0.29688102,9.77792
172033275,3,0.10534488,0.29688102,9.77792
172033277,3,0.10534488,0.30645782,9.77792
172033279,3,0.10534488,0.30645782,9.77792
172033281,3,0.10534488,0.30645782,9.77792
172033283,3,0.10534488,0.30645782,9.77792
172033285,3,0.10534488,0.30645782,9.77792
172033287,3,0.10534488,0.30645782,9.77792
172033289,3,0.10534488,0.30645782,9.77792
172033291,3,0.10534488,0.30645782,9.77792
172033293,3,0.10534488,0.30645782,9.77792
172033295,3,0.11492168,0.30645782,9.77792
172033297,3,0.11492168,0.30645782,9.77792
172033299,3,0.11492168,0.30645782,9.77792
172033301,3,0.11492168,0.30645782,9.77792
172033303,3,0.11492168,0.30645782,9.77792
172033305,3,0.11492168,0.30645782,9.77792
172033307,3,0.11492168,0.30645782,9.77792
172033309,3,0.11492168,0.30645782,9.77792
172033311,3,0.11492168,0.30645782,9.77792
172033313,3,0.12449849,0.30645782,9.77792
172033315,3,0.12449849,0.30645782,9.77792
172033317,3,0.12449849,0.30645782,9.77792
172033319,3,0.12449849,0.30645782,9.77792
172033321,3,0.12449849,0.30645782,9.77792
172033323,3,0.12449849,0.29688102,9.77792
172033325,3,0.12449849,0.29688102,9.77792
172033327,3,0.12449849,0.29688102,9.77792
172033329,3,0.12449849,0.29688102,9.77792
172033331,3,0.12449849,0.30645782,9.77792
172033333,3,0.12449849,0.30645782,9.77792
172033335,3,0.12449849,0.30645782,9.77792
172033337,3,0.11492168,0.30645782,9.77792
172033339,3,0.11492168,0.29688102,9.77792
172033341,3,0.11492168,0.29688102,9.77792
172033343,3,0.11492168,0.29688102,9.787497
172033345,3,0.12449849,0.29688102,9.787497
172033347,3,0.12449849,0.30645782,9.787497
172033349,3,0.12449849,0.30645782,9.797073
172033351,3,0.12449849,0.30645782,9.797073
172033353,3,0.12449849,0.30645782,9.797073
172033355,3,0.12449849,0.29688102,9.797073
172033357,3,0.12449849,0.29688102,9.797073
172033359,3,0.12449849,0.30645782,9.787497
172033361,3,0.12449849,0.30645782,9.77792
172033363,3,0.12449849,0.30645782,9.77792
172033365,3,0.1340753,0.30645782,9.77792
172033367,3,0.1340753,0.30645782,9.77792
172033369,3,0.1340753,0.30645782,9.77792
172033371,3,0.1340753,0.30645782,9.77792
172033373,3,0.1340753,0.30645782,9.77792
172033375,3,0.1340753,0.29688102,9.77792
172033377,3,0.12449849,0.29688102,9.77792
172033379,3,0.12449849,0.30645782,9.77792
172033381,3,0.12449849,0.30645782,9.77792
172033383,3,0.12449849,0.30645782,9.77792
172033385,3,0.12449849,0.30645782,9.77792
172033387,3,0.1340753,0.30645782,9.77792
172033389,3,0.1340753,0.30645782,9.77792
172033391,3,0.1340753,0.30645782,9.77792
172033393,3,0.1340753,0.30645782,9.77792
172033395,3,0.1340753,0.30645782,9.77792
172033397,3,0.1340753,0.29688102,9.77792
172033399,3,0.1340753,0.29688102,9.77792
172033401,3,0.12449849,0.29688102,9.77792
172033403,3,0.11492168,0.29688102,9.787497
172033405,3,0.11492168,0.29688102,9.787497
172033407,3,0.11492168,0.29688102,9.787497
172033409,3,0.11492168,0.29688102,9.787497
172033411,3,0.11492168,0.29688102,9.787497
172033413,3,0.11492168,0.29688102,9.787497
172033415,3,0.11492168,0.29688102,9.787497
172033417,3,0.11492168,0.29688102,9.787497
172033419,3,0.11492168,0.29688102,9.787497
172033421,3,0.12449849,0.29688102,9.787497
172033423,3,0.12449849,0.29688102,9.787497
172033425,3,0.12449849,0.29688102,9.787497
172033427,3,0.12449849,0.29688102,9.77792
172033429,3,0.12449849,0.29688102,9.787497
172033431,3,0.12449849,0.29688102,9.787497
172033433,3,0.12449849,0.29688102,9.787497
172033435,3,0.12449849,0.30645782,9.77792
172033437,3,0.1340753,0.31603462,9.77792
172033439,3,0.1340753,0.31603462,9.77792
172033441,3,0.1340753,0.31603462,9.77792
172033443,3,0.1340753,0.30645782,9.77792
172033445,3,0.1340753,0.29688102,9.77792
172033447,3,0.1340753,0.29688102,9.77792
172033449,3,0.1340753,0.29688102,9.77792
172033451,3,0.1340753,0.29688102,9.77792
172033453,3,0.1340753,0.29688102,9.77792
172033455,3,0.1340753,0.29688102,9.77792
172033457,3,0.12449849,0.30645782,9.77792
172033459,3,0.12449849,0.30645782,9.77792
172033461,3,0.12449849,0.30645782,9.77792
172033463,3,0.12449849,0.30645782,9.77792
172033465,3,0.12449849,0.30645782,9.77792
172033467,3,0.11492168,0.30645782,9.77792
172033469,3,0.11492168,0.30645782,9.77792
172033471,3,0.11492168,0.30645782,9.77792
172033473,3,0.11492168,0.30645782,9.77792
172033475,3,0.11492168,0.31603462,9.77792
172033477,3,0.11492168,0.31603462,9.77792
172033479,3,0.11492168,0.31603462,9.77792
172033481,3,0.11492168,0.31603462,9.77792
172033483,3,0.11492168,0.30645782,9.77792
172033485,3,0.11492168,0.30645782,9.77792
172033487,3,0.11492168,0.30645782,9.768343
172033489,3,0.11492168,0.30645782,9.768343
172033491,3,0.11492168,0.30645782,9.768343
172033493,3,0.11492168,0.30645782,9.768343
172033495,3,0.11492168,0.29688102,9.787497
172033497,3,0.11492168,0.29688102,9.797073
172033499,3,0.11492168,0.29688102,9.797073
172033501,3,0.11492168,0.29688102,9.80665
172033503,3,0.11492168,0.29688102,9.816227
172033505,3,0.11492168,0.2873042,9.816227
172033507,3,0.12449849,0.29688102,9.80665
172033509,3,0.12449849,0.29688102,9.787497
172033511,3,0.12449849,0.29688102,9.77792
172033513,3,0.12449849,0.29688102,9.768343
172033515,3,0.12449849,0.29688102,9.758766
172033517,3,0.12449849,0.29688102,9.749189
172033519,3,0.12449849,0.30645782,9.749189
172033521,3,0.1340753,0.30645782,9.749189
172033523,3,0.1340753,0.30645782,9.758766
172033525,3,0.1436521,0.30645782,9.77792
172033527,3,0.1436521,0.29688102,9.787497
172033529,3,0.1340753,0.29688102,9.80665
172033531,3,0.12449849,0.29688102,9.80665
172033533,3,0.12449849,0.29688102,9.80665
172033535,3,0.12449849,0.29688102,9.797073
172033537,3,0.11492168,0.29688102,9.787497
172033539,3,0.11492168,0.29688102,9.768343
172033541,3,0.10534488,0.30645782,9.758766
172033543,3,0.10534488,0.30645782,9.758766
172033545,3,0.10534488,0.30645782,9.758766
172033547,3,0.10534488,0.30645782,9.758766
172033549,3,0.12449849,0.30645782,9.758766
172033551,3,0.12449849,0.29688102,9.787497
172033553,3,0.12449849,0.29688102,9.797073
172033555,3,0.12449849,0.29688102,9.80665
172033557,3,0.12449849,0.29688102,9.80665
172033559,3,0.12449849,0.30645782,9.80665
172033561,3,0.12449849,0.30645782,9.80665
172033563,3,0.12449849,0.30645782,9.80665
172033565,3,0.12449849,0.30645782,9.797073
172033567,3,0.12449849,0.30645782,9.77792
172033569,3,0.12449849,0.31603462,9.768343
172033571,3,0.12449849,0.32561144,9.768343
172033573,3,0.12449849,0.32561144,9.758766
172033575,3,0.12449849,0.32561144,9.758766
172033577,3,0.12449849,0.32561144,9.758766
172033579,3,0.12449849,0.32561144,9.768343
172033581,3,0.12449849,0.31603462,9.787497
172033583,3,0.12449849,0.31603462,9.797073
172033585,3,0.12449849,0.31603462,9.80665
172033587,3,0.12449849,0.31603462,9.80665
172033589,3,0.12449849,0.31603462,9.80665
172033591,3,0.12449849,0.31603462,9.80665
172033593,3,0.12449849,0.31603462,9.80665
172033595,3,0.12449849,0.31603462,9.80665
172033597,3,0.12449849,0.30645782,9.787497
172033599,3,0.12449849,0.30645782,9.787497
172033601,3,0.12449849,0.30645782,9.787497
172033603,3,0.12449849,0.30645782,9.787497
172033605,3,0.12449849,0.30645782,9.787497
172033607,3,0.12449849,0.29688102,9.787497
172033609,3,0.12449849,0.29688102,9.787497
172033611,3,0.12449849,0.29688102,9.787497
172033613,3,0.12449849,0.29688102,9.787497
172033615,3,0.12449849,0.29688102,9.787497
172033617,3,0.12449849,0.29688102,9.787497
172033619,3,0.12449849,0.29688102,9.787497
172033621,3,0.12449849,0.29688102,9.787497
172033623,3,0.12449849,0.29688102,9.77792
172033625,3,0.12449849,0.29688102,9.768343
172033627,3,0.12449849,0.29688102,9.768343
172033629,3,0.12449849,0.2873042,9.768343
172033631,3,0.12449849,0.29688102,9.768343
172033633,3,0.12449849,0.29688102,9.768343
172033635,3,0.11492168,0.29688102,9.768343
172033637,3,0.11492168,0.29688102,9.77792
172033639,3,0.11492168,0.29688102,9.797073
172033641,3,0.11492168,0.29688102,9.80665
172033643,3,0.11492168,0.30645782,9.80665
172033645,3,0.12449849,0.30645782,9.80665
172033647,3,0.12449849,0.30645782,9.80665
172033649,3,0.12449849,0.30645782,9.80665
172033651,3,0.12449849,0.30645782,9.80665
172033653,3,0.12449849,0.30645782,9.797073
172033655,3,0.12449849,0.30645782,9.787497
172033657,3,0.12449849,0.30645782,9.77792
172033659,3,0.12449849,0.30645782,9.77792
172033661,3,0.12449849,0.30645782,9.77792
172033663,3,0.12449849,0.30645782,9.77792
172033665,3,0.12449849,0.30645782,9.797073
172033667,3,0.12449849,0.30645782,9.797073
172033669,3,0.12449849,0.30645782,9.797073
172033671,3,0.12449849,0.30645782,9.797073
172033673,3,0.12449849,0.30645782,9.797073
172033675,3,0.12449849,0.30645782,9.797073
172033677,3,0.12449849,0.30645782,9.797073
172033679,3,0.1340753,0.29688102,9.797073
172033681,3,0.1340753,0.29688102,9.797073
172033683,3,0.12449849,0.29688102,9.77792
172033685,3,0.12449849,0.29688102,9.77792
172033687,3,0.12449849,0.29688102,9.768343
172033689,3,0.12449849,0.29688102,9.768343
172033691,3,0.12449849,0.29688102,9.768343
172033693,3,0.12449849,0.29688102,9.768343
172033695,3,0.1340753,0.29688102,9.768343
172033697,3,0.1340753,0.29688102,9.77792
172033699,3,0.1340753,0.29688102,9.787497
172033701,3,0.1340753,0.29688102,9.787497
172033703,3,0.1340753,0.29688102,9.787497
172033705,3,0.12449849,0.29688102,9.787497
172033707,3,0.12449849,0.29688102,9.787497
172033709,3,0.11492168,0.29688102,9.787497
172033711,3,0.11492168,0.29688102,9.787497
172033713,3,0.11492168,0.29688102,9.787497
172033715,3,0.11492168,0.29688102,9.787497
172033717,3,0.11492168,0.30645782,9.787497
172033719,3,0.10534488,0.30645782,9.80665
172033721,3,0.11492168,0.30645782,9.80665
172033723,3,0.11492168,0.30645782,9.80665
172033725,3,0.12449849,0.30645782,9.80665
172033727,3,0.12449849,0.30645782,9.80665
172033729,3,0.12449849,0.30645782,9.80665
172033731,3,0.12449849,0.30645782,9.80665
172033733,3,0.12449849,0.30645782,9.80665
172033735,3,0.12449849,0.30645782,9.797073
172033737,3,0.12449849,0.30645782,9.787497
172033739,3,0.12449849,0.30645782,9.787497
172033741,3,0.12449849,0.30645782,9.787497
172033743,3,0.12449849,0.30645782,9.787497
172033745,3,0.11492168,0.30645782,9.787497
172033747,3,0.11492168,0.30645782,9.787497
172033749,3,0.11492168,0.30645782,9.797073
172033751,3,0.11492168,0.30645782,9.80665
172033753,3,0.11492168,0.29688102,9.80665
172033755,3,0.12449849,0.29688102,9.80665
172033757,3,0.12449849,0.29688102,9.797073
172033759,3,0.12449849,0.29688102,9.787497
172033761,3,0.12449849,0.29688102,9.787497
172033763,3,0.12449849,0.29688102,9.787497
172033765,3,0.12449849,0.29688102,9.787497
172033767,3,0.12449849,0.29688102,9.787497
172033769,3,0.12449849,0.29688102,9.787497
172033771,3,0.12449849,0.29688102,9.787497
172033773,3,0.12449849,0.29688102,9.797073
172033775,3,0.12449849,0.29688102,9.797073
172033777,3,0.11492168,0.29688102,9.80665
172033779,3,0.11492168,0.29688102,9.816227
172033781,3,0.11492168,0.29688102,9.816227
172033783,3,0.11492168,0.30645782,9.816227
172033785,3,0.11492168,0.30645782,9.797073
172033787,3,0.11492168,0.30645782,9.797073
172033789,3,0.11492168,0.30645782,9.797073
172033791,3,0.11492168,0.30645782,9.787497
172033793,3,0.11492168,0.30645782,9.787497
172033795,3,0.11492168,0.30645782,9.787497
172033797,3,0.10534488,0.30645782,9.787497
172033799,3,0.11492168,0.30645782,9.787497
172033801,3,0.11492168,0.30645782,9.787497
172033803,3,0.11492168,0.30645782,9.787497
172033805,3,0.11492168,0.30645782,9.797073
172033807,3,0.11492168,0.30645782,9.80665
172033809,3,0.11492168,0.30645782,9.80665
172033811,3,0.11492168,0.30645782,9.80665
172033813,3,0.11492168,0.30645782,9.80665
172033815,3,0.11492168,0.30645782,9.80665
172033817,3,0.11492168,0.30645782,9.80665
172033819,3,0.11492168,0.30645782,9.80665
172033821,3,0.11492168,0.30645782,9.80665
172033823,3,0.11492168,0.31603462,9.80665
172033825,3,0.11492168,0.31603462,9.80665
172033827,3,0.11492168,0.31603462,9.797073
172033829,3,0.11492168,0.31603462,9.797073
172033831,3,0.11492168,0.31603462,9.797073
172033833,3,0.11492168,0.31603462,9.797073
172033835,3,0.11492168,0.30645782,9.797073
172033837,3,0.11492168,0.30645782,9.797073
172033839,3,0.11492168,0.30645782,9.797073
172033841,3,0.11492168,0.30645782,9.797073
172033843,3,0.11492168,0.30645782,9.797073
172033845,3,0.11492168,0.30645782,9.797073
172033847,3,0.11492168,0.30645782,9.797073
172033849,3,0.11492168,0.30645782,9.797073
172033851,3,0.11492168,0.30645782,9.797073
172033853,3,0.11492168,0.2873042,9.797073
172033855,3,0.10534488,0.2873042,9.797073
172033857,3,0.10534488,0.2873042,9.797073
172033859,3,0.10534488,0.2873042,9.797073
172033861,3,0.10534488,0.29688102,9.80665
172033863,3,0.10534488,0.29688102,9.80665
172033865,3,0.10534488,0.29688102,9.80665
172033867,3,0.10534488,0.29688102,9.80665
172033869,3,0.10534488,0.30645782,9.80665
172033871,3,0.10534488,0.30645782,9.80665
172033873,3,0.10534488,0.30645782,9.80665
172033875,3,0.10534488,0.30645782,9.80665
172033877,3,0.10534488,0.30645782,9.80665
172033879,3,0.10534488,0.30645782,9.80665
172033881,3,0.10534488,0.31603462,9.797073
172033883,3,0.10534488,0.31603462,9.797073
172033885,3,0.10534488,0.31603462,9.797073
172033887,3,0.10534488,0.31603462,9.797073
172033889,3,0.10534488,0.31603462,9.797073
172033891,3,0.095768064,0.30645782,9.797073
172033893,3,0.10534488,0.30645782,9.797073
172033895,3,0.10534488,0.30645782,9.797073
172033897,3,0.11492168,0.30645782,9.797073
172033899,3,0.11492168,0.30645782,9.797073
172033901,3,0.11492168,0.29688102,9.797073
172033903,3,0.11492168,0.29688102,9.797073
172033905,3,0.11492168,0.29688102,9.797073
172033907,3,0.12449849,0.29688102,9.797073
172033909,3,0.12449849,0.29688102,9.797073
172033911,3,0.12449849,0.29688102,9.797073
172033913,3,0.12449849,0.29688102,9.797073
172033915,3,0.12449849,0.29688102,9.797073
172033917,3,0.1340753,0.30645782,9.797073
172033919,3,0.1340753,0.31603462,9.797073
172033921,3,0.1340753,0.30645782,9.797073
172033923,3,0.1340753,0.29688102,9.797073
172033925,3,0.1340753,0.29688102,9.797073
172033927,3,0.1340753,0.29688102,9.787497
172033929,3,0.12449849,0.29688102,9.787497
172033931,3,0.12449849,0.29688102,9.787497
172033933,3,0.1340753,0.30645782,9.787497
172033935,3,0.1340753,0.30645782,9.787497
172033937,3,0.12449849,0.30645782,9.787497
172033939,3,0.12449849,0.30645782,9.787497
172033941,3,0.12449849,0.30645782,9.787497
172033943,3,0.12449849,0.30645782,9.787497
172033945,3,0.12449849,0.30645782,9.787497
172033947,3,0.12449849,0.30645782,9.787497
172033949,3,0.12449849,0.30645782,9.787497
172033951,3,0.12449849,0.30645782,9.797073
172033953,3,0.12449849,0.30645782,9.797073
172033955,3,0.12449849,0.30645782,9.797073
172033957,3,0.12449849,0.30645782,9.797073
172033959,3,0.12449849,0.30645782,9.797073
172033961,3,0.12449849,0.30645782,9.797073
172033963,3,0.11492168,0.30645782,9.797073
172033965,3,0.10534488,0.30645782,9.797073
172033967,3,0.11492168,0.30645782,9.797073
172033969,3,0.1340753,0.30645782,9.797073
172033971,3,0.1340753,0.30645782,9.797073
172033973,3,0.1340753,0.30645782,9.797073
172033975,3,0.1340753,0.30645782,9.797073
172033977,3,0.12449849,0.30645782,9.80665
172033979,3,0.12449849,0.29688102,9.816227
172033981,3,0.12449849,0.29688102,9.816227
172033983,3,0.12449849,0.29688102,9.816227
172033985,3,0.12449849,0.29688102,9.80665
172033987,3,0.12449849,0.30645782,9.80665
172033989,3,0.12449849,0.30645782,9.797073
172033991,3,0.11492168,0.30645782,9.797073
172033993,3,0.10534488,0.30645782,9.797073
172033995,3,0.10534488,0.30645782,9.797073
172033997,3,0.10534488,0.30645782,9.797073
172033999,3,0.10534488,0.30645782,9.80665
172034001,3,0.10534488,0.30645782,9.80665
172034003,3,0.11492168,0.30645782,9.80665
172034005,3,0.12449849,0.31603462,9.80665
172034007,3,0.12449849,0.30645782,9.80665
172034009,3,0.12449849,0.30645782,9.80665
172034011,3,0.12449849,0.30645782,9.80665
172034013,3,0.12449849,0.2873042,9.797073
172034015,3,0.12449849,0.2873042,9.797073
172034017,3,0.12449849,0.2873042,9.787497
172034019,3,0.12449849,0.2873042,9.77792
172034021,3,0.11492168,0.2873042,9.77792
172034023,3,0.11492168,0.29688102,9.787497
172034025,3,0.10534488,0.30645782,9.787497
172034027,3,0.10534488,0.30645782,9.787497
172034029,3,0.10534488,0.30645782,9.787497
172034031,3,0.10534488,0.30645782,9.787497
172034033,3,0.10534488,0.30645782,9.787497
172034035,3,0.10534488,0.30645782,9.787497
172034037,3,0.11492168,0.31603462,9.787497
172034039,3,0.11492168,0.31603462,9.787497
172034041,3,0.11492168,0.31603462,9.787497
172034043,3,0.11492168,0.31603462,9.787497
172034045,3,0.11492168,0.31603462,9.787497
172034047,3,0.11492168,0.31603462,9.787497
172034049,3,0.11492168,0.30645782,9.787497
172034051,3,0.11492168,0.30645782,9.787497
172034053,3,0.11492168,0.31603462,9.787497
172034055,3,0.11492168,0.32561144,9.787497
172034057,3,0.11492168,0.31603462,9.787497
172034059,3,0.11492168,0.31603462,9.787497
172034061,3,0.11492168,0.31603462,9.797073
172034063,3,0.11492168,0.31603462,9.797073
172034065,3,0.11492168,0.29688102,9.797073
172034067,3,0.11492168,0.29688102,9.797073
172034069,3,0.11492168,0.29688102,9.797073
172034071,3,0.11492168,0.29688102,9.797073
172034073,3,0.11492168,0.29688102,9.797073
172034075,3,0.11492168,0.29688102,9.797073
172034077,3,0.11492168,0.30645782,9.797073
172034079,3,0.12449849,0.30645782,9.797073
172034081,3,0.12449849,0.30645782,9.797073
172034083,3,0.11492168,0.30645782,9.797073
172034085,3,0.11492168,0.31603462,9.797073
172034087,3,0.12449849,0.30645782,9.797073
172034089,3,0.11492168,0.30645782,9.797073
172034091,3,0.11492168,0.30645782,9.797073
172034093,3,0.11492168,0.30645782,9.797073
172034095,3,0.11492168,0.30645782,9.797073
172034097,3,0.11492168,0.30645782,9.797073
172034099,3,0.11492168,0.30645782,9.797073
172034101,3,0.11492168,0.30645782,9.797073
172034103,3,0.11492168,0.30645782,9.797073
172034105,3,0.11492168,0.30645782,9.797073
172034107,3,0.12449849,0.30645782,9.797073
172034109,3,0.12449849,0.30645782,9.797073
172034111,3,0.12449849,0.30645782,9.797073
172034113,3,0.1340753,0.30645782,9.797073
172034115,3,0.1340753,0.30645782,9.797073
172034117,3,0.12449849,0.30645782,9.797073
172034119,3,0.12449849,0.30645782,9.797073
172034121,3,0.12449849,0.30645782,9.797073
172034123,3,0.12449849,0.29688102,9.797073
172034125,3,0.12449849,0.29688102,9.797073
172034127,3,0.11492168,0.29688102,9.797073
172034129,3,0.11492168,0.29688102,9.797073
172034131,3,0.11492168,0.29688102,9.787497
172034133,3,0.11492168,0.29688102,9.787497
172034135,3,0.12449849,0.2873042,9.787497
172034137,3,0.12449849,0.2873042,9.787497
172034139,3,0.12449849,0.2873042,9.787497
172034141,3,0.11492168,0.2873042,9.787497
172034143,3,0.11492168,0.2873042,9.797073
172034145,3,0.11492168,0.2873042,9.797073
172034147,3,0.11492168,0.31603462,9.797073
172034149,3,0.11492168,0.31603462,9.797073
172034151,3,0.11492168,0.30645782,9.797073
172034153,3,0.11492168,0.30645782,9.797073
172034155,3,0.11492168,0.29688102,9.797073
172034157,3,0.11492168,0.29688102,9.797073
172034159,3,0.11492168,0.29688102,9.797073
172034161,3,0.11492168,0.29688102,9.797073
172034163,3,0.11492168,0.30645782,9.787497
172034165,3,0.11492168,0.30645782,9.787497
172034167,3,0.12449849,0.30645782,9.787497
172034169,3,0.12449849,0.30645782,9.787497
172034171,3,0.12449849,0.30645782,9.787497
172034173,3,0.12449849,0.30645782,9.787497
172034175,3,0.12449849,0.30645782,9.787497
172034177,3,0.12449849,0.30645782,9.787497
172034179,3,0.12449849,0.30645782,9.787497
172034181,3,0.11492168,0.30645782,9.787497
172034183,3,0.11492168,0.30645782,9.787497
172034185,3,0.11492168,0.30645782,9.787497
172034187,3,0.11492168,0.30645782,9.787497
172034189,3,0.11492168,0.30645782,9.787497
172034191,3,0.11492168,0.30645782,9.787497
172034193,3,0.11492168,0.30645782,9.787497
172034195,3,0.11492168,0.30645782,9.787497
172034197,3,0.11492168,0.30645782,9.787497
172034199,3,0.11492168,0.30645782,9.787497
172034201,3,0.12449849,0.30645782,9.787497
172034203,3,0.12449849,0.30645782,9.787497
172034205,3,0.12449849,0.30645782,9.797073
172034207,3,0.12449849,0.30645782,9.797073
172034209,3,0.12449849,0.30645782,9.797073
172034211,3,0.12449849,0.30645782,9.797073
172034213,3,0.12449849,0.30645782,9.797073
172034215,3,0.12449849,0.30645782,9.797073
172034217,3,0.12449849,0.30645782,9.797073
172034219,3,0.12449849,0.30645782,9.797073
172034221,3,0.12449849,0.30645782,9.797073
172034223,3,0.12449849,0.30645782,9.797073
172034225,3,0.12449849,0.30645782,9.787497
172034227,3,0.12449849,0.29688102,9.787497
172034229,3,0.12449849,0.29688102,9.787497
172034231,3,0.12449849,0.31603462,9.787497
172034233,3,0.12449849,0.31603462,9.787497
172034235,3,0.12449849,0.30645782,9.787497
172034237,3,0.12449849,0.30645782,9.787497
172034239,3,0.12449849,0.30645782,9.787497
172034241,3,0.12449849,0.30645782,9.787497
172034243,3,0.12449849,0.30645782,9.787497
172034245,3,0.11492168,0.30645782,9.787497
172034247,3,0.11492168,0.30645782,9.787497
172034249,3,0.11492168,0.30645782,9.787497
172034251,3,0.11492168,0.30645782,9.787497
172034253,3,0.11492168,0.30645782,9.787497
172034255,3,0.11492168,0.30645782,9.787497
172034257,3,0.11492168,0.30645782,9.787497
172034259,3,0.11492168,0.30645782,9.787497
172034261,3,0.11492168,0.30645782,9.787497
172034263,3,0.11492168,0.30645782,9.787497
172034265,3,0.11492168,0.29688102,9.787497
172034267,3,0.11492168,0.29688102,9.787497
172034269,3,0.12449849,0.29688102,9.787497
172034271,3,0.12449849,0.29688102,9.787497
172034273,3,0.12449849,0.29688102,9.787497
172034275,3,0.12449849,0.31603462,9.797073
172034277,3,0.12449849,0.30645782,9.797073
172034279,3,0.12449849,0.30645782,9.797073
172034281,3,0.12449849,0.30645782,9.797073
172034283,3,0.11492168,0.30645782,9.797073
172034285,3,0.11492168,0.30645782,9.797073
172034287,3,0.11492168,0.30645782,9.797073
172034289,3,0.11492168,0.30645782,9.797073
172034291,3,0.11492168,0.30645782,9.797073
172034293,3,0.1340753,0.30645782,9.797073
172034295,3,0.1340753,0.30645782,9.797073
172034297,3,0.1340753,0.30645782,9.797073
172034299,3,0.1340753,0.30645782,9.797073
172034301,3,0.12449849,0.30645782,9.797073
172034303,3,0.12449849,0.29688102,9.797073
172034305,3,0.12449849,0.29688102,9.797073
172034307,3,0.1340753,0.29688102,9.797073
172034309,3,0.1436521,0.29688102,9.797073
172034311,3,0.1340753,0.29688102,9.797073
172034313,3,0.1340753,0.29688102,9.797073
172034315,3,0.1340753,0.29688102,9.797073
172034317,3,0.11492168,0.29688102,9.797073
172034319,3,0.11492168,0.29688102,9.797073
172034321,3,0.11492168,0.29688102,9.797073
172034323,3,0.11492168,0.29688102,9.797073
172034325,3,0.11492168,0.29688102,9.787497
172034327,3,0.11492168,0.29688102,9.787497
172034329,3,0.11492168,0.29688102,9.787497
172034331,3,0.1340753,0.29688102,9.787497
172034333,3,0.1340753,0.30645782,9.787497
172034335,3,0.1340753,0.30645782,9.787497
172034337,3,0.1340753,0.30645782,9.787497
172034339,3,0.11492168,0.30645782,9.787497
172034341,3,0.10534488,0.29688102,9.787497
172034343,3,0.10534488,0.29688102,9.787497
172034345,3,0.10534488,0.29688102,9.787497
172034347,3,0.10534488,0.29688102,9.787497
172034349,3,0.10534488,0.29688102,9.787497
172034351,3,0.10534488,0.29688102,9.787497
172034353,3,0.10534488,0.29688102,9.787497
172034355,3,0.10534488,0.2873042,9.797073
172034357,3,0.11492168,0.2873042,9.797073
172034359,3,0.11492168,0.2873042,9.797073
172034361,3,0.11492168,0.2873042,9.797073
172034363,3,0.12449849,0.2873042,9.797073
172034365,3,0.10534488,0.2873042,9.797073
172034367,3,0.11492168,0.2873042,9.797073
172034369,3,0.11492168,0.2873042,9.797073
172034371,3,0.12449849,0.29688102,9.797073
172034373,3,0.12449849,0.29688102,9.797073
172034375,3,0.12449849,0.29688102,9.797073
172034377,3,0.12449849,0.30645782,9.787497
172034379,3,0.12449849,0.30645782,9.787497
172034381,3,0.12449849,0.30645782,9.787497
172034383,3,0.12449849,0.30645782,9.787497
172034385,3,0.12449849,0.30645782,9.787497
172034387,3,0.12449849,0.30645782,9.787497
172034389,3,0.12449849,0.30645782,9.787497
172034391,3,0.12449849,0.30645782,9.787497
172034393,3,0.11492168,0.30645782,9.787497
172034395,3,0.11492168,0.30645782,9.787497
172034397,3,0.11492168,0.30645782,9.787497
172034399,3,0.11492168,0.30645782,9.787497
172034401,3,0.11492168,0.31603462,9.787497
172034403,3,0.11492168,0.31603462,9.80665
172034405,3,0.11492168,0.31603462,9.80665
172034407,3,0.11492168,0.31603462,9.80665
172034409,3,0.11492168,0.29688102,9.80665
172034411,3,0.11492168,0.29688102,9.80665
172034413,3,0.11492168,0.29688102,9.80665
172034415,3,0.11492168,0.29688102,9.80665
172034417,3,0.11492168,0.30645782,9.80665
172034419,3,0.11492168,0.29688102,9.80665
172034421,3,0.11492168,0.29688102,9.80665
172034423,3,0.11492168,0.29688102,9.80665
172034425,3,0.11492168,0.29688102,9.80665
172034427,3,0.11492168,0.30645782,9.80665
172034429,3,0.11492168,0.30645782,9.80665
172034431,3,0.11492168,0.30645782,9.797073
172034433,3,0.11492168,0.30645782,9.797073
172034435,3,0.11492168,0.30645782,9.797073
172034437,3,0.10534488,0.30645782,9.797073
172034439,3,0.10534488,0.31603462,9.797073
172034441,3,0.10534488,0.29688102,9.797073
172034443,3,0.11492168,0.29688102,9.797073
172034445,3,0.11492168,0.29688102,9.797073
172034447,3,0.11492168,0.29688102,9.797073
172034449,3,0.11492168,0.29688102,9.797073
172034451,3,0.11492168,0.29688102,9.797073
172034453,3,0.11492168,0.30645782,9.797073
172034455,3,0.11492168,0.31603462,9.797073
172034457,3,0.11492168,0.31603462,9.797073
172034459,3,0.11492168,0.31603462,9.797073
172034461,3,0.11492168,0.31603462,9.797073
172034463,3,0.11492168,0.31603462,9.797073
172034465,3,0.11492168,0.30645782,9.797073
172034467,3,0.11492168,0.30645782,9.797073
172034469,3,0.11492168,0.30645782,9.797073
172034471,3,0.11492168,0.30645782,9.797073
172034473,3,0.11492168,0.30645782,9.797073
172034475,3,0.11492168,0.29688102,9.797073
172034477,3,0.11492168,0.29688102,9.797073
172034479,3,0.11492168,0.29688102,9.797073
172034481,3,0.12449849,0.29688102,9.797073
172034483,3,0.12449849,0.29688102,9.797073
172034485,3,0.12449849,0.29688102,9.797073
172034487,3,0.10534488,0.29688102,9.797073
172034489,3,0.11492168,0.29688102,9.797073
172034491,3,0.12449849,0.29688102,9.797073
172034493,3,0.12449849,0.29688102,9.797073
172034495,3,0.12449849,0.30645782,9.797073
172034497,3,0.12449849,0.31603462,9.797073
172034499,3,0.12449849,0.31603462,9.797073
172034501,3,0.12449849,0.31603462,9.797073
172034503,3,0.12449849,0.31603462,9.797073
172034505,3,0.12449849,0.31603462,9.797073
172034507,3,0.12449849,0.31603462,9.797073
172034509,3,0.12449849,0.31603462,9.80665
172034511,3,0.12449849,0.31603462,9.80665
172034513,3,0.12449849,0.31603462,9.80665
172034515,3,0.12449849,0.31603462,9.80665
172034517,3,0.12449849,0.31603462,9.797073
172034519,3,0.12449849,0.31603462,9.797073
172034521,3,0.12449849,0.31603462,9.797073
172034523,3,0.12449849,0.29688102,9.797073
172034525,3,0.12449849,0.29688102,9.797073
172034527,3,0.12449849,0.30645782,9.797073
172034529,3,0.1340753,0.30645782,9.797073
172034531,3,0.1340753,0.30645782,9.797073
172034533,3,0.1340753,0.30645782,9.797073
172034535,3,0.12449849,0.30645782,9.797073
172034537,3,0.12449849,0.30645782,9.797073
172034539,3,0.12449849,0.30645782,9.797073
172034541,3,0.11492168,0.30645782,9.797073
172034543,3,0.11492168,0.30645782,9.797073
172034545,3,0.11492168,0.30645782,9.797073
172034547,3,0.11492168,0.30645782,9.80665
172034549,3,0.11492168,0.31603462,9.80665
172034551,3,0.11492168,0.31603462,9.80665
172034553,3,0.11492168,0.30645782,9.80665
172034555,3,0.11492168,0.30645782,9.80665
172034557,3,0.12449849,0.30645782,9.80665
172034559,3,0.12449849,0.30645782,9.80665
172034561,3,0.1340753,0.30645782,9.80665
172034563,3,0.12449849,0.30645782,9.80665
172034565,3,0.11492168,0.30645782,9.787497
172034567,3,0.10534488,0.30645782,9.787497
172034569,3,0.10534488,0.29688102,9.787497
172034571,3,0.10534488,0.29688102,9.787497
172034573,3,0.10534488,0.30645782,9.787497
172034575,3,0.10534488,0.30645782,9.787497
172034577,3,0.10534488,0.29688102,9.787497
172034579,3,0.10534488,0.30645782,9.797073
172034581,3,0.11492168,0.30645782,9.797073
172034583,3,0.11492168,0.30645782,9.797073
172034585,3,0.11492168,0.30645782,9.80665
172034587,3,0.12449849,0.30645782,9.80665
172034589,3,0.12449849,0.30645782,9.80665
172034591,3,0.11492168,0.30645782,9.80665
172034593,3,0.11492168,0.30645782,9.80665
172034595,3,0.11492168,0.30645782,9.80665
172034597,3,0.11492168,0.30645782,9.80665
172034599,3,0.11492168,0.30645782,9.80665
172034601,3,0.11492168,0.29688102,9.80665
172034603,3,0.11492168,0.29688102,9.80665
172034605,3,0.11492168,0.29688102,9.80665
172034607,3,0.11492168,0.29688102,9.80665
172034609,3,0.11492168,0.29688102,9.80665
172034611,3,0.11492168,0.29688102,9.80665
172034613,3,0.11492168,0.30645782,9.80665
172034615,3,0.12449849,0.30645782,9.80665
172034617,3,0.12449849,0.30645782,9.80665
172034619,3,0.12449849,0.30645782,9.80665
172034621,3,0.11492168,0.31603462,9.80665
172034623,3,0.11492168,0.31603462,9.797073
172034625,3,0.11492168,0.31603462,9.797073
172034627,3,0.11492168,0.31603462,9.797073
172034629,3,0.11492168,0.31603462,9.797073
172034631,3,0.11492168,0.31603462,9.797073
172034633,3,0.11492168,0.31603462,9.797073
172034635,3,0.11492168,0.29688102,9.797073
172034637,3,0.11492168,0.29688102,9.797073
172034639,3,0.11492168,0.29688102,9.797073
172034641,3,0.11492168,0.29688102,9.797073
172034643,3,0.11492168,0.29688102,9.797073
172034645,3,0.11492168,0.29688102,9.797073
172034647,3,0.11492168,0.29688102,9.797073
172034649,3,0.11492168,0.30645782,9.797073
172034651,3,0.11492168,0.30645782,9.797073
172034653,3,0.11492168,0.31603462,9.797073
172034655,3,0.11492168,0.31603462,9.797073
172034657,3,0.11492168,0.31603462,9.797073
172034659,3,0.12449849,0.30645782,9.816227
172034661,3,0.12449849,0.29688102,9.816227
172034663,3,0.12449849,0.29688102,9.816227
172034665,3,0.12449849,0.29688102,9.816227
172034667,3,0.12449849,0.29688102,9.816227
172034669,3,0.12449849,0.29688102,9.816227
172034671,3,0.12449849,0.29688102,9.816227
172034673,3,0.12449849,0.29688102,9.816227
172034675,3,0.12449849,0.29688102,9.816227
172034677,3,0.11492168,0.30645782,9.816227
172034679,3,0.11492168,0.30645782,9.816227
172034681,3,0.11492168,0.30645782,9.80665
172034683,3,0.11492168,0.30645782,9.80665
172034685,3,0.11492168,0.30645782,9.797073
172034687,3,0.11492168,0.30645782,9.797073
172034689,3,0.11492168,0.30645782,9.797073
172034691,3,0.11492168,0.30645782,9.797073
172034693,3,0.11492168,0.29688102,9.797073
172034695,3,0.11492168,0.29688102,9.797073
172034697,3,0.11492168,0.29688102,9.797073
172034699,3,0.12449849,0.30645782,9.797073
172034701,3,0.12449849,0.31603462,9.797073
172034703,3,0.12449849,0.31603462,9.797073
172034705,3,0.12449849,0.30645782,9.797073
172034707,3,0.11492168,0.30645782,9.797073
172034709,3,0.11492168,0.30645782,9.797073
172034711,3,0.11492168,0.30645782,9.797073
172034713,3,0.11492168,0.30645782,9.797073
172034715,3,0.11492168,0.30645782,9.797073
172034717,3,0.11492168,0.30645782,9.797073
172034719,3,0.11492168,0.30645782,9.797073
172034721,3,0.11492168,0.30645782,9.797073
172034723,3,0.12449849,0.30645782,9.797073
172034725,3,0.12449849,0.30645782,9.797073
172034727,3,0.12449849,0.30645782,9.797073
172034729,3,0.12449849,0.30645782,9.797073
172034731,3,0.11492168,0.30645782,9.80665
172034733,3,0.10534488,0.30645782,9.80665
172034735,3,0.10534488,0.30645782,9.80665
172034737,3,0.10534488,0.30645782,9.80665
172034739,3,0.10534488,0.30645782,9.80665
172034741,3,0.10534488,0.30645782,9.80665
172034743,3,0.10534488,0.31603462,9.80665
172034745,3,0.11492168,0.31603462,9.80665
172034747,3,0.11492168,0.30645782,9.80665
172034749,3,0.11492168,0.29688102,9.80665
172034751,3,0.11492168,0.29688102,9.80665
172034753,3,0.11492168,0.29688102,9.80665
172034755,3,0.11492168,0.29688102,9.80665
172034757,3,0.11492168,0.29688102,9.80665
172034759,3,0.11492168,0.29688102,9.80665
172034761,3,0.11492168,0.29688102,9.80665
172034763,3,0.11492168,0.29688102,9.80665
172034765,3,0.11492168,0.29688102,9.80665
172034767,3,0.11492168,0.29688102,9.80665
172034769,3,0.11492168,0.29688102,9.80665
172034771,3,0.11492168,0.29688102,9.80665
172034773,3,0.11492168,0.29688102,9.797073
172034775,3,0.11492168,0.29688102,9.797073
172034777,3,0.11492168,0.2873042,9.797073
172034779,3,0.11492168,0.2873042,9.797073
172034781,3,0.11492168,0.2873042,9.797073
172034783,3,0.11492168,0.2873042,9.797073
172034785,3,0.11492168,0.2873042,9.797073
172034787,3,0.12449849,0.2873042,9.797073
172034789,3,0.12449849,0.2873042,9.797073
172034791,3,0.12449849,0.2873042,9.797073
172034793,3,0.12449849,0.29688102,9.797073
172034795,3,0.12449849,0.29688102,9.797073
172034797,3,0.12449849,0.29688102,9.797073
172034799,3,0.12449849,0.30645782,9.797073
172034801,3,0.12449849,0.30645782,9.797073
172034803,3,0.12449849,0.30645782,9.797073
172034805,3,0.12449849,0.30645782,9.797073
172034807,3,0.11492168,0.30645782,9.797073
172034809,3,0.11492168,0.30645782,9.797073
172034811,3,0.12449849,0.30645782,9.797073
172034813,3,0.12449849,0.30645782,9.797073
172034815,3,0.12449849,0.30645782,9.797073
172034817,3,0.11492168,0.30645782,9.797073
172034819,3,0.11492168,0.30645782,9.797073
172034821,3,0.11492168,0.30645782,9.797073
172034823,3,0.11492168,0.30645782,9.797073
172034825,3,0.10534488,0.30645782,9.797073
172034827,3,0.10534488,0.30645782,9.797073
172034829,3,0.10534488,0.31603462,9.797073
172034831,3,0.10534488,0.31603462,9.797073
172034833,3,0.10534488,0.30645782,9.797073
172034835,3,0.11492168,0.30645782,9.797073
172034837,3,0.11492168,0.30645782,9.797073
172034839,3,0.11492168,0.30645782,9.797073
172034841,3,0.11492168,0.30645782,9.797073
172034843,3,0.11492168,0.30645782,9.797073
172034845,3,0.11492168,0.30645782,9.797073
172034847,3,0.11492168,0.29688102,9.787497
172034849,3,0.11492168,0.2873042,9.797073
172034851,3,0.11492168,0.2873042,9.797073
172034853,3,0.11492168,0.2873042,9.797073
172034855,3,0.11492168,0.2873042,9.797073
172034857,3,0.11492168,0.2873042,9.797073
172034859,3,0.11492168,0.2873042,9.797073
172034861,3,0.10534488,0.2873042,9.797073
172034863,3,0.10534488,0.2873042,9.797073
172034865,3,0.10534488,0.2873042,9.797073
172034867,3,0.11492168,0.2873042,9.797073
172034869,3,0.11492168,0.29688102,9.797073
172034871,3,0.11492168,0.30645782,9.797073
172034873,3,0.11492168,0.30645782,9.797073
172034875,3,0.12449849,0.30645782,9.797073
172034877,3,0.12449849,0.30645782,9.797073
172034879,3,0.12449849,0.30645782,9.797073
172034881,3,0.12449849,0.31603462,9.797073
172034883,3,0.12449849,0.31603462,9.797073
172034885,3,0.12449849,0.31603462,9.787497
172034887,3,0.12449849,0.31603462,9.787497
172034889,3,0.12449849,0.31603462,9.787497
172034891,3,0.12449849,0.31603462,9.797073
172034893,3,0.12449849,0.31603462,9.80665
172034895,3,0.12449849,0.31603462,9.80665
172034897,3,0.12449849,0.31603462,9.80665
172034899,3,0.12449849,0.31603462,9.80665
172034901,3,0.12449849,0.31603462,9.80665
172034903,3,0.12449849,0.30645782,9.797073
172034905,3,0.12449849,0.30645782,9.787497
172034907,3,0.12449849,0.30645782,9.787497
172034909,3,0.11492168,0.30645782,9.77792
172034911,3,0.11492168,0.30645782,9.77792
172034913,3,0.11492168,0.30645782,9.77792
172034915,3,0.11492168,0.30645782,9.77792
172034917,3,0.11492168,0.30645782,9.77792
172034919,3,0.11492168,0.29688102,9.77792
172034921,3,0.12449849,0.29688102,9.77792
172034923,3,0.12449849,0.29688102,9.77792
172034925,3,0.12449849,0.29688102,9.787497
172034927,3,0.12449849,0.29688102,9.787497
172034929,3,0.12449849,0.29688102,9.787497
172034931,3,0.11492168,0.2873042,9.787497
172034933,3,0.10534488,0.2873042,9.787497
172034935,3,0.10534488,0.2873042,9.787497
172034937,3,0.10534488,0.2873042,9.787497
172034939,3,0.10534488,0.29688102,9.787497
172034941,3,0.10534488,0.29688102,9.787497
172034943,3,0.11492168,0.29688102,9.787497
172034945,3,0.11492168,0.29688102,9.787497
172034947,3,0.11492168,0.29688102,9.787497
172034949,3,0.11492168,0.29688102,9.787497
172034951,3,0.11492168,0.29688102,9.797073
172034953,3,0.11492168,0.29688102,9.797073
172034955,3,0.11492168,0.29688102,9.797073
172034957,3,0.11492168,0.29688102,9.797073
172034959,3,0.11492168,0.29688102,9.797073
172034961,3,0.11492168,0.29688102,9.797073
172034963,3,0.11492168,0.29688102,9.797073
172034965,3,0.11492168,0.29688102,9.797073
172034967,3,0.10534488,0.29688102,9.797073
172034969,3,0.10534488,0.29688102,9.797073
172034971,3,0.10534488,0.29688102,9.797073
172034973,3,0.10534488,0.30645782,9.797073
172034975,3,0.10534488,0.30645782,9.797073
172034977,3,0.12449849,0.30645782,9.787497
172034979,3,0.12449849,0.30645782,9.797073
172034981,3,0.12449849,0.30645782,9.80665
172034983,3,0.12449849,0.30645782,9.80665
172034985,3,0.12449849,0.29688102,9.80665
172034987,3,0.12449849,0.29688102,9.80665
172034989,3,0.12449849,0.29688102,9.80665
172034991,3,0.12449849,0.30645782,9.797073
172034993,3,0.12449849,0.30645782,9.787497
172034995,3,0.12449849,0.30645782,9.77792
172034997,3,0.12449849,0.30645782,9.77792
172034999,3,0.11492168,0.30645782,9.77792
172035001,3,0.11492168,0.30645782,9.77792
172035003,3,0.11492168,0.30645782,9.77792
172035005,3,0.11492168,0.29688102,9.787497
172035007,3,0.11492168,0.29688102,9.797073
172035009,3,0.11492168,0.29688102,9.80665
172035011,3,0.11492168,0.29688102,9.80665
172035013,3,0.11492168,0.29688102,9.80665
172035015,3,0.11492168,0.29688102,9.80665
172035017,3,0.11492168,0.30645782,9.797073
172035019,3,0.11492168,0.30645782,9.787497
172035021,3,0.11492168,0.29688102,9.787497
172035023,3,0.11492168,0.29688102,9.787497
172035025,3,0.11492168,0.29688102,9.787497
172035027,3,0.11492168,0.29688102,9.787497
172035029,3,0.11492168,0.29688102,9.787497
172035031,3,0.12449849,0.29688102,9.787497
172035033,3,0.12449849,0.29688102,9.787497
172035035,3,0.12449849,0.29688102,9.797073
172035037,3,0.12449849,0.30645782,9.797073
172035039,3,0.12449849,0.30645782,9.797073
172035041,3,0.12449849,0.30645782,9.797073
172035043,3,0.12449849,0.30645782,9.797073
172035045,3,0.12449849,0.30645782,9.797073
172035047,3,0.12449849,0.30645782,9.797073
172035049,3,0.12449849,0.30645782,9.797073
172035051,3,0.11492168,0.30645782,9.787497
172035053,3,0.11492168,0.30645782,9.787497
172035055,3,0.11492168,0.30645782,9.787497
172035057,3,0.11492168,0.29688102,9.787497
172035059,3,0.11492168,0.2873042,9.787497
172035061,3,0.11492168,0.2873042,9.787497
172035063,3,0.11492168,0.2873042,9.787497
172035065,3,0.11492168,0.29688102,9.787497
172035067,3,0.11492168,0.29688102,9.787497
172035069,3,0.11492168,0.29688102,9.787497
172035071,3,0.11492168,0.29688102,9.787497
172035073,3,0.11492168,0.29688102,9.787497
172035075,3,0.11492168,0.29688102,9.787497
172035077,3,0.11492168,0.29688102,9.787497
172035079,3,0.11492168,0.29688102,9.787497
172035081,3,0.11492168,0.29688102,9.787497
172035083,3,0.11492168,0.29688102,9.787497
172035085,3,0.11492168,0.30645782,9.787497
172035087,3,0.11492168,0.30645782,9.787497
172035089,3,0.11492168,0.30645782,9.787497
172035091,3,0.11492168,0.30645782,9.787497
172035093,3,0.11492168,0.30645782,9.787497
172035095,3,0.11492168,0.30645782,9.77792
172035097,3,0.11492168,0.30645782,9.77792
172035099,3,0.11492168,0.30645782,9.77792
172035101,3,0.11492168,0.30645782,9.77792
172035103,3,0.11492168,0.30645782,9.77792
172035105,3,0.11492168,0.30645782,9.77792
172035107,3,0.11492168,0.30645782,9.77792
172035109,3,0.11492168,0.29688102,9.77792
172035111,3,0.11492168,0.29688102,9.77792
172035113,3,0.11492168,0.29688102,9.77792
172035115,3,0.11492168,0.29688102,9.77792
172035117,3,0.11492168,0.29688102,9.77792
172035119,3,0.11492168,0.29688102,9.77792
172035121,3,0.11492168,0.29688102,9.797073
172035123,3,0.11492168,0.29688102,9.797073
172035125,3,0.11492168,0.29688102,9.797073
172035127,3,0.11492168,0.29688102,9.797073
172035129,3,0.11492168,0.29688102,9.797073
172035131,3,0.11492168,0.29688102,9.797073
172035133,3,0.12449849,0.29688102,9.797073
172035135,3,0.12449849,0.29688102,9.797073
172035137,3,0.12449849,0.29688102,9.797073
172035139,3,0.12449849,0.29688102,9.797073
172035141,3,0.12449849,0.29688102,9.797073
172035143,3,0.12449849,0.29688102,9.797073
172035145,3,0.12449849,0.31603462,9.797073
172035147,3,0.12449849,0.31603462,9.787497
172035149,3,0.1340753,0.30645782,9.787497
172035151,3,0.1340753,0.30645782,9.787497
172035153,3,0.1340753,0.30645782,9.787497
172035155,3,0.1340753,0.30645782,9.787497
172035157,3,0.1436521,0.30645782,9.787497
172035159,3,0.1436521,0.30645782,9.787497
172035161,3,0.1436521,0.30645782,9.787497
172035163,3,0.1436521,0.30645782,9.787497
172035165,3,0.1340753,0.29688102,9.787497
172035167,3,0.1340753,0.29688102,9.787497
172035169,3,0.1340753,0.29688102,9.787497
172035171,3,0.12449849,0.29688102,9.787497
172035173,3,0.12449849,0.30645782,9.787497
172035175,3,0.12449849,0.30645782,9.787497
172035177,3,0.12449849,0.30645782,9.787497
172035179,3,0.12449849,0.30645782,9.787497
172035181,3,0.12449849,0.30645782,9.787497
172035183,3,0.12449849,0.30645782,9.787497
172035185,3,0.12449849,0.30645782,9.787497
172035187,3,0.12449849,0.30645782,9.787497
172035189,3,0.12449849,0.30645782,9.787497
172035191,3,0.12449849,0.30645782,9.787497
172035193,3,0.12449849,0.30645782,9.787497
172035195,3,0.12449849,0.30645782,9.787497
172035197,3,0.12449849,0.30645782,9.787497
172035199,3,0.12449849,0.30645782,9.787497
172035201,3,0.1340753,0.30645782,9.787497
172035203,3,0.1340753,0.30645782,9.787497
172035205,3,0.11492168,0.30645782,9.787497
172035207,3,0.11492168,0.30645782,9.787497
172035209,3,0.11492168,0.30645782,9.787497
172035211,3,0.11492168,0.30645782,9.787497
172035213,3,0.12449849,0.29688102,9.787497
172035215,3,0.11492168,0.29688102,9.787497
172035217,3,0.11492168,0.30645782,9.787497
172035219,3,0.11492168,0.30645782,9.787497
172035221,3,0.11492168,0.30645782,9.787497
172035223,3,0.11492168,0.30645782,9.787497
172035225,3,0.11492168,0.30645782,9.787497
172035227,3,0.11492168,0.30645782,9.787497
172035229,3,0.11492168,0.30645782,9.787497
172035231,3,0.11492168,0.30645782,9.787497
172035233,3,0.12449849,0.30645782,9.787497
172035235,3,0.11492168,0.2873042,9.787497
172035237,3,0.11492168,0.2873042,9.787497
172035239,3,0.12449849,0.29688102,9.787497
172035241,3,0.12449849,0.30645782,9.787497
172035243,3,0.12449849,0.30645782,9.787497
172035245,3,0.12449849,0.30645782,9.787497
172035247,3,0.12449849,0.30645782,9.787497
172035249,3,0.12449849,0.29688102,9.787497
172035251,3,0.12449849,0.29688102,9.787497
172035253,3,0.12449849,0.29688102,9.787497
172035255,3,0.12449849,0.29688102,9.77792
172035257,3,0.12449849,0.29688102,9.768343
172035259,3,0.11492168,0.29688102,9.77792
172035261,3,0.10534488,0.29688102,9.797073
172035263,3,0.11492168,0.30645782,9.797073
172035265,3,0.11492168,0.30645782,9.797073
172035267,3,0.11492168,0.30645782,9.797073
172035269,3,0.11492168,0.30645782,9.797073
172035271,3,0.11492168,0.30645782,9.797073
172035273,3,0.11492168,0.30645782,9.797073
172035275,3,0.11492168,0.30645782,9.797073
172035277,3,0.11492168,0.30645782,9.797073
172035279,3,0.11492168,0.30645782,9.787497
172035281,3,0.11492168,0.30645782,9.787497
172035283,3,0.11492168,0.30645782,9.787497
172035285,3,0.11492168,0.30645782,9.787497
172035287,3,0.11492168,0.29688102,9.787497
172035289,3,0.11492168,0.29688102,9.797073
172035291,3,0.11492168,0.29688102,9.80665
172035293,3,0.11492168,0.29688102,9.80665
172035295,3,0.11492168,0.29688102,9.80665
172035297,3,0.11492168,0.29688102,9.80665
172035299,3,0.11492168,0.30645782,9.80665
172035301,3,0.11492168,0.30645782,9.797073
172035303,3,0.11492168,0.31603462,9.797073
172035305,3,0.11492168,0.30645782,9.797073
172035307,3,0.11492168,0.2873042,9.797073
172035309,3,0.11492168,0.2873042,9.787497
172035311,3,0.11492168,0.30645782,9.787497
172035313,3,0.11492168,0.32561144,9.787497
172035315,3,0.11492168,0.32561144,9.797073
172035317,3,0.11492168,0.32561144,9.797073
172035319,3,0.12449849,0.32561144,9.787497
172035321,3,0.12449849,0.31603462,9.787497
172035323,3,0.12449849,0.31603462,9.787497
172035325,3,0.12449849,0.31603462,9.787497
172035327,3,0.11492168,0.31603462,9.787497
172035329,3,0.11492168,0.31603462,9.787497
172035331,3,0.11492168,0.31603462,9.787497
172035333,3,0.11492168,0.31603462,9.787497
172035335,3,0.12449849,0.31603462,9.787497
172035337,3,0.12449849,0.31603462,9.787497
172035339,3,0.12449849,0.31603462,9.787497
172035341,3,0.12449849,0.31603462,9.787497
172035343,3,0.12449849,0.29688102,9.787497
172035345,3,0.12449849,0.29688102,9.787497
172035347,3,0.12449849,0.29688102,9.787497
172035349,3,0.12449849,0.29688102,9.787497
172035351,3,0.12449849,0.29688102,9.787497
172035353,3,0.12449849,0.29688102,9.787497
172035355,3,0.12449849,0.29688102,9.787497
172035357,3,0.12449849,0.29688102,9.787497
172035359,3,0.12449849,0.29688102,9.787497
172035361,3,0.12449849,0.29688102,9.787497
172035363,3,0.12449849,0.29688102,9.787497
172035365,3,0.12449849,0.29688102,9.787497
172035367,3,0.12449849,0.29688102,9.787497
172035369,3,0.10534488,0.30645782,9.787497
172035371,3,0.10534488,0.30645782,9.787497
172035373,3,0.10534488,0.30645782,9.787497
172035375,3,0.10534488,0.29688102,9.787497
172035377,3,0.10534488,0.29688102,9.787497
172035379,3,0.10534488,0.30645782,9.787497
172035381,3,0.10534488,0.30645782,9.787497
172035383,3,0.10534488,0.30645782,9.787497
172035385,3,0.10534488,0.30645782,9.77792
172035387,3,0.10534488,0.30645782,9.77792
172035389,3,0.11492168,0.29688102,9.787497
172035391,3,0.11492168,0.29688102,9.787497
172035393,3,0.11492168,0.29688102,9.787497
172035395,3,0.11492168,0.29688102,9.787497
172035397,3,0.11492168,0.29688102,9.787497
172035399,3,0.11492168,0.29688102,9.797073
172035401,3,0.11492168,0.29688102,9.797073
172035403,3,0.11492168,0.29688102,9.787497
172035405,3,0.11492168,0.29688102,9.77792
172035407,3,0.11492168,0.29688102,9.77792
172035409,3,0.11492168,0.29688102,9.77792
172035411,3,0.11492168,0.30645782,9.77792
172035413,3,0.11492168,0.30645782,9.77792
172035415,3,0.11492168,0.30645782,9.77792
172035417,3,0.11492168,0.30645782,9.77792
172035419,3,0.11492168,0.30645782,9.77792
172035421,3,0.11492168,0.30645782,9.77792
172035423,3,0.11492168,0.30645782,9.77792
172035425,3,0.11492168,0.30645782,9.77792
172035427,3,0.11492168,0.30645782,9.77792
172035429,3,0.11492168,0.30645782,9.77792
172035431,3,0.11492168,0.30645782,9.77792
172035433,3,0.11492168,0.30645782,9.77792
172035435,3,0.11492168,0.30645782,9.77792
172035437,3,0.11492168,0.30645782,9.77792
172035439,3,0.11492168,0.30645782,9.77792
172035441,3,0.11492168,0.30645782,9.77792
172035443,3,0.11492168,0.30645782,9.77792
172035445,3,0.11492168,0.30645782,9.787497
172035447,3,0.11492168,0.30645782,9.787497
172035449,3,0.11492168,0.30645782,9.787497
172035451,3,0.11492168,0.30645782,9.787497
172035453,3,0.11492168,0.30645782,9.787497
172035455,3,0.11492168,0.30645782,9.787497
172035457,3,0.11492168,0.30645782,9.787497
172035459,3,0.11492168,0.30645782,9.787497
172035461,3,0.11492168,0.30645782,9.787497
172035463,3,0.11492168,0.31603462,9.787497
172035465,3,0.12449849,0.31603462,9.787497
172035467,3,0.12449849,0.29688102,9.787497
172035469,3,0.12449849,0.29688102,9.787497
172035471,3,0.12449849,0.29688102,9.787497
172035473,3,0.12449849,0.29688102,9.787497
172035475,3,0.12449849,0.29688102,9.787497
172035477,3,0.12449849,0.29688102,9.787497
172035479,3,0.12449849,0.29688102,9.787497
172035481,3,0.11492168,0.29688102,9.787497
172035483,3,0.10534488,0.29688102,9.787497
172035485,3,0.11492168,0.29688102,9.787497
