time,seconds_elapsed,z,y,x
1678040536877350100,0.03935009765625,0.22282149791419506,0.06008249358423054,-0.015122234306740574
1678040536897221000,0.05922119140625,0.031233342653512953,0.03565057457387447,0.09588615809427574
1678040536917091000,0.079091064453125,-0.11597089647948741,-0.007221110359951853,0.04318544532442465
1678040536936962800,0.098962890625,-0.10675824697613716,0.01491122647114098,0.06931919068344869
1678040536956832800,0.118832763671875,-0.14605097744464873,-0.021024813980609177,-0.0641810834428994
1678040536976704000,0.1387041015625,-0.09652969842851161,0.025523732835054398,0.017726790781947784
1678040536996575000,0.158574951171875,0.03411912722289562,0.06209317581951618,0.002445895314775407
1678040537016445000,0.17844482421875,0.018217793735861777,0.09142916041910648,0.08680619505988434
1678040537036316000,0.19831591796875,0.09735212072730064,0.0017923633094877004,0.04668095472340938
1678040537056185900,0.218185791015625,0.20774609385728834,-0.05965637712664902,-0.01439507080966141
1678040537076056800,0.238056884765625,0.1140583408564329,-0.08152692121639847,-0.0008280483219772576
1678040537095928000,0.257927978515625,0.11555880854725838,-0.019917583391070366,-0.018027963402320164
1678040537115797800,0.2777978515625,-0.0895458308905363,0.07193776655085385,-0.010885809163248631
1678040537135668700,0.297668701171875,-0.1495937646180391,0.08749116338305175,0.02593646922125481
1678040537155540000,0.3175400390625,-0.02380290039181709,0.03066043813638389,0.015453677626146236
1678040537175410000,0.337409912109375,0.06498129847645759,-0.00734597884863615,0.010963518608536105
1678040537195281000,0.357281005859375,0.04115034103393554,0.013872311877459288,0.04789526698319241
1678040537215150800,0.37715087890625,0.08116144890487194,0.06739756583794951,-0.02507362814710941
1678040537235021800,0.397021728515625,0.132070382887125,-0.013973434164375065,-0.0075844477966078554
1678040537254892800,0.416892822265625,0.038868952098488806,0.02792626393213868,0.010514676579204388
1678040537274762800,0.4367626953125,0.06601765578687191,-0.041612843979150056,-0.004585001119144726
1678040537294634000,0.456634033203125,0.05022212076187133,-0.010672858249023556,0.015601633587828836
1678040537314504000,0.47650390625,-0.06988777521848678,0.10550839304551482,0.00949279303542571
1678040537334375000,0.496375,-0.06465221265256405,0.05928717848807573,-0.04725680924945045
1678040537354246000,0.516245849609375,0.02100187149643898,0.024843495485931632,0.02134439219064079
1678040537374115800,0.53611572265625,-0.02975216418504715,0.004073606114462018,0.05369431321735028
1678040537393986800,0.55598681640625,0.07477846986949443,-0.05092383929044008,0.011465177670493721
1678040537413858000,0.575858154296875,-0.08908698120713233,0.07710713201276957,0.059588303159386846
1678040537433728000,0.59572802734375,0.04533844037353992,0.011268778315559029,0.011795409705280325
1678040537453599000,0.615598876953125,0.15347732805311678,0.045365182249993086,-0.11120793812768533
1678040537473468700,0.63546875,0.23526421537995337,0.049922114901989695,-0.014946325183985754
1678040537493340000,0.65533984375,0.14938216769397258,0.03969911931231618,0.05214285055822693
1678040537513211000,0.6752109375,-0.0987742624849081,-0.0036392332851886747,-0.0023245973186887567
1678040537533080800,0.695080810546875,-0.1992997525513172,-0.014074483386054635,0.0428195528877899
1678040537552951800,0.714951904296875,-0.10550094039142131,0.003817074070125818,-0.03145881740588229
1678040537572822800,0.73482275390625,-0.08428045770823955,0.08953662467077374,-0.01301226326531032
1678040537592692700,0.754692626953125,0.10135668019354342,0.0754601685233414,0.029950613933173005
1678040537612564000,0.77456396484375,0.19414660757184027,0.043231458156928415,0.02376371915889904
1678040537632434000,0.794433837890625,0.21290976023077965,-0.029554814982041714,-0.02650179778670426
1678040537652305000,0.814304931640625,0.19752572861611842,-0.013899419080093503,0.019386326058581472
1678040537672175900,0.83417578125,0.14178046051859855,-0.0026281565465033053,0.05748727119294926
1678040537692045800,0.8540458984375,-0.04243979632258415,0.07890117582269013,-0.07624772957130335
1678040537711916800,0.873916748046875,-0.16893208681643007,0.043290494867786765,0.03904653715509921
1678040537731787000,0.893787109375,-0.06250993992686271,0.02557202895618975,-0.15868603914473206
1678040537751658000,0.913657958984375,-0.056471244284510606,-0.03357062649466097,-0.02234077368369326
1678040537771529000,0.933529052734375,-0.19067162493765352,0.11616941472627222,0.020429533234890548
1678040537791398700,0.953398681640625,-0.10581716673374175,0.24484036443345247,-0.15827568651186302
1678040537811270000,0.973269775390625,-0.001709142005443573,0.1074397264342755,-0.2818257860739715
1678040537831140900,0.993140869140625,0.32644846112728115,0.34399069368913765,-0.49657275340296325
1678040537851010800,1.0130107421875,0.28920155727267266,0.4889293259777128,-0.6302047595836222
1678040537870881800,1.0328818359375,0.3734977970719337,0.75098897462897,-0.5286495246106758
1678040537890751700,1.052751708984375,0.3399012324184179,0.32943346828743814,-0.18375448422664775
1678040537910622700,1.072622802734375,0.13284487439095974,-0.22073621607273816,0.3110783849727362
1678040537930493200,1.0924931640625,0.19941081171035765,-0.4020599477548152,0.5823869965497404
1678040537950363100,1.112363037109375,0.08228840710818768,-0.6593335311733186,0.2701122779319063
1678040537970234000,1.132234130859375,0.2109241393715143,-0.3067387483332306,-0.06826605576816946
1678040537990105000,1.15210498046875,0.017270283752679822,-0.2594677324619144,0.015122713797353207
1678040538009975300,1.171975341796875,-0.4019195894360542,-0.25282233963068573,0.10047876484785229
1678040538029846300,1.19184619140625,-0.7198913141191006,-0.15654559304993598,0.21294022843427954
1678040538049716200,1.21171630859375,-0.4597299733698368,-0.06732146839443594,0.12522179563399405
1678040538069587200,1.231587158203125,-0.00376841262280941,0.2593634683698416,0.10046959516070783
1678040538089458200,1.251458251953125,-0.04422960234880447,0.19082272384613752,0.1121275189243257
1678040538109328100,1.271328125,-0.28938217453658577,0.2734521264117211,0.0353543681062758
1678040538129199000,1.29119921875,0.11563830352425575,0.07039857428483665,-0.08326865031719208
1678040538149069000,1.311069091796875,0.36886955274939537,0.05197868210561573,-0.003249722510948777
1678040538168940000,1.33093994140625,0.26713585593700406,0.2206899657782167,-0.11139387088753282
1678040538188811000,1.35081103515625,0.36341362543106076,-0.006886690773814916,0.0036957127127796407
1678040538208681200,1.37068115234375,0.22386428496539593,-0.26382168988771737,-0.07536262643299996
1678040538228552200,1.39055224609375,0.05327040241658687,-0.16289324504360556,-0.1105289246212691
1678040538248423200,1.410423095703125,0.09286883783340454,0.1645576711244881,0.08483831078670918
1678040538268293000,1.430293212890625,0.0455529599070549,0.3059713441573083,-0.08518288644067942
1678040538288164000,1.4501640625,0.057952422752976414,0.025852307202294467,0.03735927818790078
1678040538308035000,1.47003515625,-0.01338613579571247,0.0029508126296103,0.15432612690217792
1678040538327905300,1.4899052734375,0.042539165043830866,-0.040721813423559065,-0.04816664953678846
1678040538347776300,1.5097763671875,0.06772621327042579,0.007773410480469465,-0.0024141484696418047
1678040538367646200,1.529646240234375,0.1698509552270174,-0.07437653800509869,-0.012506649547442792
1678040538387517200,1.54951708984375,0.0433960741341114,-0.012537775338068604,0.07656608393862843
1678040538407388200,1.56938818359375,-0.2382774257212877,-0.007571750428527593,0.04078983715847134
1678040538427258000,1.589258056640625,-0.23175240786671636,-0.026359087680652735,0.04551036287434399
1678040538447129000,1.609129150390625,0.0016945289582014082,-0.010466010565310716,-0.06655088588073849
1678040538466999000,1.6289990234375,0.0011579378634691238,0.08112769276574254,0.04262180182598531
1678040538486870000,1.6488701171875,0.019300328275561333,-0.019511048416793346,0.1668744236342609
1678040538506741000,1.668740966796875,-0.16217676733732223,0.1437643278121948,0.08340206743851304
1678040538526611200,1.688611083984375,-0.0092412910759449,0.1665443148970604,0.005682721811532974
1678040538546482200,1.708482177734375,-0.04020049296319485,-0.11438830346316098,0.09778598209992051
1678040538566353200,1.728353271484375,0.5259890366971492,-0.1616182566717267,0.19938399676866828
1678040538586223000,1.74822314453125,-0.14756722722649573,-0.14787249378338455,0.15886208983138203
1678040538606094000,1.768093994140625,-0.2904454198539257,-0.0032546178817749022,0.0605683043397963
1678040538625964300,1.78796435546875,0.08229074519574642,-0.00926437969058752,-0.03466054062321782
1678040538645835300,1.807835205078125,-0.13191431554257868,0.05517112147137523,0.20177776003740727
1678040538665706200,1.827706298828125,-0.14105214624404908,0.12610548313334582,0.2101565890651196
1678040538685576200,1.847576171875,-0.16391279734969139,-0.10322364310920237,0.1906775432217866
1678040538705447200,1.867447265625,-0.24301146850585936,-0.08133022960051894,0.2288363012243062
1678040538725318100,1.887318115234375,-0.1397223589450121,0.048361149195581675,0.15848346577733755
1678040538745188400,1.907188232421875,0.2022007346898317,-0.06611307898536324,0.0904726999444887
1678040538765059300,1.927059326171875,0.12552081511318683,-0.016621756716072557,0.16433595466520637
1678040538784929000,1.946928955078125,0.14324118072092532,0.09340791314616799,0.22074344953112304
1678040538804800000,1.966800048828125,0.21139760210216044,0.12881956439763306,0.2548284918213263
1678040538824671000,1.9866708984375,0.009973112481832504,-0.10242482088170946,0.14920608960785903
1678040538844541200,2.006541259765625,-0.0262859493792057,0.08603760357387363,-0.0919005042579025
1678040538864412200,2.026412109375,0.09176759859323501,0.21694500709623096,-0.2573459910675883
1678040538884283100,2.046283203125,-0.13287117787599562,0.012035524904355405,0.010031637736037373
1678040538904153000,2.066153076171875,-0.011971008300781249,-0.21274061420895157,0.17583976557934655
1678040538924024600,2.086024658203125,0.36599779670536514,-0.27076339878439903,0.16025157142840324
1678040538943894500,2.10589453125,0.10050561632215976,0.23073563203960656,-0.17663811288280412
1678040538963765500,2.125765625,-0.4944722009271383,0.15555691080614922,-0.5967765372343361
1678040538983636700,2.14563671875,-0.35451661774814125,0.02965126109384,0.25531766357775776
1678040539003506700,2.165506591796875,0.4123924681335687,-0.15137407216355203,0.12850131049500776
1678040539023377700,2.185377685546875,0.385733593788743,0.04094466239400208,0.008603824289469047
1678040539043248600,2.20524853515625,0.23599603678584097,0.22557255018800496,-0.1739736977128312
1678040539063118600,2.22511865234375,0.2671352714151144,0.042663229814916846,0.01682619324699044
1678040539082989600,2.244989501953125,0.2292535767883062,0.10222593730874359,0.0708319424671121
1678040539102860800,2.26486083984375,0.06817454155981541,0.07054331651777028,-0.11298360603069886
1678040539122730800,2.284730712890625,-0.06990180374383927,-0.04952573599554598,-0.11119946256028487
1678040539142601700,2.304601806640625,-0.04814122283458709,0.010592924880608916,-0.0721862431528978
1678040539162471400,2.324471435546875,-0.07947101159989833,-0.004786942015588283,0.029583191693155094
1678040539182342700,2.3443427734375,-0.2494838793903589,-0.013554112773761152,0.06598440197124146
1678040539202213600,2.364213623046875,-0.018188567641377447,0.016637173480913044,-0.035598451660992576
1678040539222083600,2.38408349609375,-0.061770519736409187,-0.025510434962064028,0.02236491261110641
1678040539241954600,2.40395458984375,0.1931611036658287,0.028419673472270368,0.05167721037443261
1678040539261825500,2.423825439453125,0.22852818512320516,0.062408160052821036,-0.10665897871959022
1678040539281695500,2.443695556640625,0.23080665144920348,0.06912197847776115,-0.13071169828716664
1678040539301566700,2.463566650390625,0.19829437490105628,-0.013052081535756587,-0.041230352034163656
1678040539321437700,2.483437744140625,0.04206920944452285,-0.04593618707098066,-0.011958313215989618
1678040539341307600,2.5033076171875,0.10238134706616402,-0.04306253133080899,0.03635205107384827
1678040539361178600,2.5231787109375,0.11051906081438063,0.0008911766860634088,0.15075473468881098
1678040539381048600,2.543048583984375,-0.013304302731156348,0.004307999392226338,0.030819985212804747
1678040539400919600,2.56291943359375,-0.010634206739068031,-0.002295782786980271,-0.057423613105900585
1678040539420790800,2.582790771484375,-0.13861644352972508,-0.005570274413004517,-0.056398174481722525
1678040539440660700,2.60266064453125,-0.15376725091040133,0.08480645434372126,0.02435758426566608
1678040539460531700,2.62253173828125,-0.10821546004712582,0.07676920529529452,0.09711875036284327
1678040539480402700,2.642402587890625,-0.12328209627568722,-0.010534034300222992,0.03316382665890269
1678040539500272600,2.662272705078125,0.13265315121114254,0.025508681396394967,0.009099302489100954
1678040539520143600,2.6821435546875,0.17903905481100083,-0.06299575068242848,-0.03977098353870678
1678040539540013600,2.702013671875,0.04853402154445648,0.011258841443434357,0.006135525346640497
1678040539559884500,2.721884521484375,-0.06284428644776344,0.027510449672862886,-0.02326811309510376
1678040539579755500,2.741755615234375,-0.08164777111709118,0.004667626484856009,0.06675331768423784
1678040539599625500,2.76162548828125,0.1014800143122673,0.06297792276479304,0.04868644932692404
1678040539619496700,2.78149658203125,0.1357955408900976,0.026104455332458018,-0.009676586353825404
1678040539639367700,2.80136767578125,0.09694763157963752,-0.08718523923903704,-0.004033278670650907
1678040539659237600,2.821237548828125,0.08953940114974974,-0.0024530922405421735,-0.013174541154934558
1678040539679108600,2.841108642578125,-0.052635027122497555,0.05332147501669824,-0.04703513845594134
1678040539698979600,2.8609794921875,-0.17679858240783214,0.04217690760269761,-0.03387666023653001
1678040539718849500,2.880849609375,0.0056838908553123475,0.11706146819517016,-0.004326754325046204
1678040539738720800,2.900720703125,0.15559797346889973,0.001728504293039441,0.014679965865379199
1678040539758590700,2.9205908203125,0.13602701155841349,-0.10148118335604667,-0.03443558189407922
1678040539778461700,2.940461669921875,0.012394202148914336,0.025978271669521925,-0.030527016448485662
1678040539798332700,2.960332763671875,-0.004319032242894172,0.10333506759442389,0.00043712647536303846
1678040539818202600,2.98020263671875,-0.07429273217916488,0.03300692819729447,0.08612646916741505
1678040539838073900,3.000073974609375,-0.05379471855163574,-0.011321531416103243,0.04221166838882491
1678040539857944800,3.01994482421875,0.016557751569151877,0.0486084019549191,-0.0006849591900128871
1678040539877814500,3.039814453125,0.09057166680693626,-0.02993694616742432,0.06873193798055872
1678040539897685500,3.059685546875,0.1700426784068346,-0.038538331904634834,0.01658597301663831
1678040539917556500,3.079556396484375,0.041432665106654165,0.02127024010904133,-0.051903799371654166
1678040539937426200,3.09942626953125,-0.01913958475589752,0.04111928830854594,-0.06822294271222781
1678040539957297200,3.119297119140625,0.05167056600451469,0.06302402692884207,-0.002707505393028259
1678040539977167000,3.1391669921875,0.005813654714822769,0.025887597711384294,0.07947050014324486
1678040539997038000,3.1590380859375,-0.051397594282031056,-0.037737683046236634,0.08196115704835392
1678040540016909000,3.178908935546875,0.023089783686399457,-0.09183174987062812,0.09720441021914593
1678040540036779300,3.198779296875,-0.008238251513242721,-0.058549731058999896,0.018383551357360556
1678040540056650200,3.218650146484375,0.13879063105285167,-0.028844620886072515,-0.10315740947257727
1678040540076521200,3.238521240234375,0.2433808863401413,0.021296762789785862,-0.011232811953034251
1678040540096391200,3.25839111328125,-0.043969490107893944,0.03073160367645323,-0.02243247055513784
1678040540116262100,3.27826220703125,-0.14927110853493214,0.07580876276530325,-0.08787999830385669
1678040540136133000,3.298133056640625,0.009079378512501715,0.08255472989417612,0.06361682345652953
1678040540156003300,3.31800341796875,0.09269815744161605,0.09047514762990176,-0.06491195956729352
1678040540175874300,3.337874267578125,-0.0802916803330183,0.047221039249747986,-0.04760574598470702
1678040540195744300,3.357744140625,-0.07631400887370109,0.032970103318244216,-0.08577219410333782
1678040540215615200,3.377615234375,-0.0335316827237606,0.011908683654293418,-0.01713423628285527
1678040540235486200,3.397486328125,0.0690285280406475,-0.014305954054370521,0.08998829569472
1678040540255356200,3.417356201171875,0.15732698921859264,-0.04086794389598071,0.013413370862510054
1678040540275227100,3.43722705078125,-0.0032920272827148436,-0.06676102150008081,-0.010080774107389152
1678040540295098000,3.45709814453125,0.13831716832220553,-0.07888020609989761,0.00862770748855546
1678040540314968000,3.476968017578125,0.19065350475907325,0.051939738334715366,-0.02236959791937843
1678040540334839000,3.496839111328125,0.16901567344665527,0.041698257240280506,0.037479397436231375
1678040540354710000,3.5167099609375,0.0381067355543375,-0.02927672869302332,0.07518865810558199
1678040540374580200,3.536580322265625,-0.13285773387253283,0.0412877767432481,0.05399917334886267
1678040540394451200,3.556451171875,-0.19757249036729335,0.07698715889491141,0.014691272710682823
1678040540414322200,3.576322265625,-0.07436112124025822,0.09377228947915137,0.026520086928643286
1678040540434192100,3.596192138671875,0.0915852277636528,0.012393836822733283,0.04300626196577213
1678040540454063000,3.61606298828125,0.07078852345049381,-0.06592325550168752,0.0010223653176799415
1678040540473933300,3.635933349609375,-0.019274024790525434,-0.00951915816925466,0.02609881104296073
1678040540493804300,3.65580419921875,0.1859282298028469,-0.04636792955175042,0.06314954843807499
1678040540513675300,3.67567529296875,0.08925473898947238,-0.07568681688606739,0.15862535846605896
1678040540533545200,3.695545166015625,0.10346855778098106,-0.023018691211566328,-0.03212027013943298
1678040540553416200,3.715416259765625,0.13315700908005237,-0.007888853553682565,-0.0709090399910463
1678040540573287200,3.735287109375,-0.0454570983171463,-0.038578517784550785,-0.048752596198581154
1678040540593157000,3.7551572265625,-0.07212240240275859,0.08910451686382294,0.011710338937444612
1678040540613028000,3.775028076171875,-0.0527595302850008,0.15740020058527587,0.0021952450219541787
1678040540632899300,3.7948994140625,-0.1147995146125555,0.12084646662659942,0.09942723736776969
1678040540652769000,3.81476904296875,0.05735504138171672,0.1058154862333089,0.052985447995364664
1678040540672640000,3.834639892578125,0.1067167459219694,-0.047844139584153886,-0.045443937441473826
1678040540692511000,3.854510986328125,0.19849720399677753,-0.043538405214250085,0.0012784452708670868
1678040540712381200,3.874381103515625,0.022181436669826506,0.019600407200679182,-0.05662199613312259
1678040540732252200,3.894252197265625,-0.06039397068619728,0.05034216694496572,0.002536185680422932
1678040540752123100,3.914123046875,-0.0023223054677248,0.04670256833359599,-0.005482084672898054
1678040540771993000,3.9339931640625,-0.027072715842723846,0.06722915046848356,0.0069466316669713705
1678040540791864000,3.953864013671875,-0.030531916385889053,-0.01598170524686575,-0.007727324582729488
1678040540811734300,3.973734375,0.019258827221393583,0.03600676760040224,-0.05911054327953606
1678040540831605200,3.993605224609375,0.07220657355487346,-0.027614567634463308,0.013127941517252474
1678040540851476200,4.013476318359375,0.1581435662984848,0.07453297067582607,0.09739170381901785
1678040540871346200,4.03334619140625,-0.010621347257494926,0.13926139036975801,0.22852887924294918
1678040540891217200,4.053217041015625,-0.22788813365399835,-0.1792752016544342,0.09613572154170832
1678040540911088000,4.073088134765625,-0.03323591464757919,0.016398688549920916,-0.03835512082483619
1678040540930958300,4.092958251953125,-0.011148001480102539,0.024862054055929183,-0.20624650294929742
1678040540950829300,4.112829345703125,0.1490022284656763,-0.06454882534332573,0.013803936516097745
1678040540970700300,4.1327001953125,0.2745113531410694,0.07803601036071776,-0.043017660142621025
1678040540990570000,4.152570068359375,0.35720249583125113,0.040886721661686894,-0.13195201720446348
1678040541010441000,4.17244091796875,0.3680050448745489,-0.23719116485454142,0.2326355839094147
1678040541030312000,4.19231201171875,-0.22097791587412355,-0.6498702679097652,0.37527021357193585
1678040541050182100,4.21218212890625,-0.2964174800008535,-0.4645438399249687,0.40388858795408156
1678040541070053000,4.23205322265625,0.3621259237080812,-0.08341909163855016,0.02216119759939611
1678040541089924000,4.251924072265625,0.37860301125645635,-0.020424966657627372,-0.07445073575247078
1678040541109794000,4.2717939453125,-0.6071557462990284,0.09097981834956444,-0.20567084021950138
1678040541129665000,4.2916650390625,-0.9802566530078649,0.06704273365144617,-0.26502142106629906
1678040541149535200,4.31153515625,-0.4873065470814705,0.18287329921163617,-0.09383423053314909
1678040541169406200,4.33140625,0.683681352096796,0.42065698659922923,0.16758845365513114
1678040541189277200,4.351277099609375,0.7660638672292233,-0.20262414773367343,0.11561656661648302
1678040541209147100,4.371147216796875,0.15361995139420032,-0.5547910970831289,-0.05744361471431329
1678040541229018000,4.39101806640625,0.6253536662906408,0.14348865267597138,-0.49735108083169904
1678040541248889000,4.41088916015625,-0.004760346269607543,0.9865732888087629,-0.4429804620882496
1678040541268759300,4.43075927734375,-0.25432664324641224,-0.3563390108697116,0.46983832960389554
1678040541288630300,4.45063037109375,0.5606570299744605,-0.03509873567766044,-0.3049966356399469
1678040541308501200,4.470501220703125,1.3440794437617063,0.17438034228496252,-0.24355585931455714
1678040541328371000,4.490370849609375,0.1798673223286867,-0.35683457583431155,-0.048752523133344945
1678040541348242200,4.5102421875,-0.7560650357842444,0.13720498756291344,0.2926073471281677
1678040541368113200,4.530113037109375,-0.41713235613703725,0.0728921218333533,0.22415015270207075
1678040541387983000,4.549983154296875,0.06202478675842285,0.5172417396832257,0.31119273206740616
1678040541407854000,4.56985400390625,-0.6905196736842394,0.7747497163794934,-0.18132844438981263
1678040541427725000,4.58972509765625,-1.6755577157497406,-0.32423655723147093,-0.15360274453107267
1678040541447595000,4.609594970703125,-0.879521904104948,0.34268158385194836,-0.24489598534451795
1678040541467466200,4.62946630859375,-0.14683014512360096,0.22809180299993603,-0.1074545586772263
1678040541487337200,4.649337158203125,-0.044399698218703265,-0.4999322198987007,0.5392288958899677
1678040541507207200,4.669207275390625,-0.3389876247048378,0.3049677018064074,-0.09457008879333734
1678040541527078100,4.689078125,-0.9101233785957098,1.082057862098515,-0.2090384717553854
1678040541546949000,4.70894921875,0.7011988886088133,0.5338396771322935,-0.2841225369753316
1678040541566819000,4.728819091796875,1.1506576433330773,-0.41781690433509644,0.9321134574119001
1678040541586690300,4.748690185546875,0.9039829761445521,-0.7267990476809442,0.7624521064728498
1678040541606560300,4.768560302734375,0.774314978224039,-0.261051421456784,0.09180931884311139
1678040541626431200,4.78843115234375,0.34836920103430746,0.29783194990865886,0.09730446392698212
1678040541646302200,4.80830224609375,0.000990180081129074,0.8523625328920781,0.1016653625502251
1678040541666172200,4.828172119140625,-0.8469429920613766,1.0177370733574032,0.16812595806531608
1678040541686043100,4.848043212890625,-0.20348025310635565,0.3400981432300061,-0.1008780572305899
1678040541705914400,4.867914306640625,-0.2488175244361162,-1.179346635266021,-0.6370070600096136
1678040541725784000,4.8877841796875,0.2784106986671686,-0.1074525128506124,-0.07104578614719212
1678040541745655000,4.907655029296875,-0.0014782558590173721,0.31408465411663056,-0.40508064728286114
1678040541765526000,4.927526123046875,0.24057108961641788,0.3286613148711622,-0.6193699157059193
1678040541785396200,4.947396240234375,0.7667828291535377,-0.5114075536370277,0.4537380029460415
1678040541805267200,4.96726708984375,0.2251730294764042,-0.8586376676388084,0.41606026992611583
1678040541825138200,4.98713818359375,-0.22389292653799056,-0.05501110860407352,0.10863926581661217
1678040541845008100,5.007008056640625,-0.39149054988026616,0.16096841446086763,0.15845813040668144
1678040541864879000,5.026879150390625,0.4037134871155023,0.00650265989229083,0.5231479680523275
1678040541884750000,5.04675,0.5895914480358362,0.20543328687027096,0.0770874226653017
1678040541904620300,5.066620361328125,0.40674014146029946,-0.1387267720364034,-0.05197399679734371
1678040541924491300,5.0864912109375,0.0043622868627309795,-0.06854863556921481,-0.0680337996485643
1678040541944362500,5.106362548828125,-0.008231237250566481,-0.12334580916166304,-0.024998686047643423
1678040541964232400,5.126232421875,-0.10374036045968532,0.23720687388032674,-0.42398441398888825
1678040541984103400,5.146103515625,-0.7069049912959336,0.5844381569258869,-0.2176932316476479
1678040542003974400,5.165974365234375,-0.4179103547722101,0.273506852273643,-0.10447097628917544
1678040542023844600,5.1858447265625,0.11439911711812019,0.29070173270255323,-0.2305124177429825
1678040542043715600,5.205715576171875,-0.7155448093473911,0.19802074559144675,-0.21491547403000294
1678040542063586600,5.225586669921875,-0.11209902348220348,0.14945713262632487,0.009801619239291176
1678040542083456500,5.24545654296875,0.24701252084076403,-0.22964929810762405,0.4094442493198439
1678040542103327500,5.265327392578125,0.03652852645218372,-0.2346216066274792,0.2718217121982947
1678040542123198500,5.285198486328125,0.07686872014701367,-0.18087744921930132,-0.027974450455419717
1678040542143068700,5.305068603515625,0.12600713732540605,-0.17343787380307912,-0.002020162449683994
1678040542162939600,5.324939697265625,-0.10902151573300362,0.2944014640033245,0.022914171391166745
1678040542182810600,5.344810546875,-0.09705343004167079,-0.015109598587453364,0.22345128371771425
1678040542202680600,5.3646806640625,0.18326748616099356,-0.37350882992260154,0.5428326194703579
1678040542222551600,5.384551513671875,-0.3461380809813738,-0.48548532300367947,0.7444133956309408
1678040542242422500,5.404422607421875,-0.40028292814493177,-0.44527671979926525,0.8742113766066729
1678040542262292500,5.42429248046875,-0.4054664682626724,-0.690254081550613,0.6262403859972954
1678040542282163500,5.44416357421875,-0.6286345876574516,-0.7004783192493022,0.6935334685474633
1678040542302034700,5.46403466796875,0.042752515533566474,-0.0631673809222877,0.48438686024248595
1678040542321904400,5.483904296875,0.6136848558068275,0.2690417626235634,-0.2876376689568162
1678040542341775400,5.503775390625,-0.17199615056216716,0.9617205871030687,0.01768997046947479
1678040542361646300,5.523646240234375,-0.6739496471554041,-0.004397285110875964,0.7917018740937113
1678040542381516500,5.5435166015625,-0.7859539780914783,-0.8071553176827728,1.7702292190909386
1678040542401387500,5.563387451171875,0.2666413504183292,0.2459213646031916,1.2216525030106304
1678040542421258500,5.583258544921875,0.5393827712774276,2.434808688093722,-1.282355685776472
1678040542441128400,5.60312841796875,0.8732727805823087,1.9512986106857657,-0.2873948001116514
1678040542460999400,5.62299951171875,-1.0698889931380748,-0.18148790926784275,2.377339957204461
1678040542480870400,5.642870361328125,-1.115464164876938,-0.6262593829587102,2.1868664851874113
1678040542500740600,5.66274072265625,-0.9184101454257965,0.3973357322445139,0.01350771634876728
1678040542520611600,5.682611572265625,-0.14603811796307564,0.427250064721331,-1.3571306485146284
1678040542540482600,5.702482666015625,0.8857651824086904,-0.0497580834466964,0.9456985498458147
1678040542560352500,5.7223525390625,0.12823153537660836,-2.111948752977699,2.1376696158200503
1678040542580223500,5.742223388671875,-0.759426621171832,-1.8504292756177483,-0.5874369003504515
1678040542600094500,5.762094482421875,1.132028638447821,0.5912650803364813,-0.3983995986163616
1678040542619964700,5.781964599609375,0.3850269068241119,-0.30371527232620865,0.6153396372765302
1678040542639835600,5.801835693359375,-0.8293243332624435,-1.0529325245749204,-0.03897591960430145
1678040542659706600,5.82170654296875,-0.20179098484516142,0.13825776628516614,-0.6801058316975832
1678040542679576300,5.841576416015625,-0.5342101909451187,0.2364877292929217,-0.29912498539388177
1678040542699447300,5.861447265625,-0.7854793463170527,0.014409122167900204,-0.9617647185057401
1678040542719318300,5.881318359375,-0.8861434411365539,0.7828829731483012,-0.5093792626798153
1678040542739188500,5.9011884765625,-0.7982967423141002,0.3677238533129915,-0.2041933698117733
1678040542759059500,5.9210595703125,-0.29630817440748214,-0.04458860838692635,-0.4019336179614067
1678040542778930400,5.940930419921875,-0.8244412373960017,0.0362826619323343,-0.138135382014513
1678040542798800400,5.96080029296875,-1.093698907792568,0.3055556029632687,0.5420236411750317
1678040542818671400,5.98067138671875,-0.0734908412117511,0.35984354839194566,0.519517794856429
1678040542838542300,6.000542236328125,0.07037877360582351,-0.001283390874043107,0.7608154451817274
1678040542858412500,6.02041259765625,0.4345066117208451,-0.38675884518325326,0.24168226572871207
1678040542878283500,6.040283447265625,0.40787710960097606,0.026863310875743625,-0.09480477433204651
1678040542898154500,6.060154541015625,-0.3563245439529419,0.5775109880112111,0.3480003677219152
1678040542918024400,6.0800244140625,-0.23013211318850516,0.2392589110393077,0.0008668459624052047
1678040542937895400,6.0998955078125,0.8312789744615554,-0.2647596283249557,0.2143587899953127
1678040542957766700,6.1197666015625,0.6595639789283275,-0.5479664752274751,-0.04269055621325969
1678040542977636600,6.13963671875,0.1702526678957045,-0.030694705732166764,-0.10967851833701132
1678040542997507600,6.159507568359375,-0.20626155438795685,0.446992876067385,-0.11534136640429496
1678040543017378600,6.179378662109375,0.13096096034049987,0.054728419205173844,-0.1736854188233614
1678040543037248500,6.19924853515625,0.34905776782035824,-0.23265958583950996,-0.1498205591112375
1678040543057119500,6.219119384765625,0.024604864424467087,0.020563553144410253,-0.08672083659768104
1678040543076990700,6.23899072265625,-0.015272460998967289,0.23080153688266872,-0.29005379018783567
1678040543096860400,6.2588603515625,0.08513787825517356,0.07541026496700942,-0.03501403023600578
1678040543116731400,6.2787314453125,0.010927198336273432,-0.07377944889478386,0.006495207238197327
1678040543136602400,6.298602294921875,-0.12310747036114335,0.10862396778278052,-0.0328302564561367
1678040543156472300,6.318472412109375,-0.000583498976379633,0.0348237683609128,0.006880407163500786
1678040543176343600,6.338343505859375,0.08113865255117415,-0.10769940028376877,0.044834582504630086
1678040543196214500,6.358214599609375,0.06166815534047782,-0.031645576716214416,0.12323182739317416
1678040543216084500,6.37808447265625,0.0942025706551969,0.013274126788601279,0.07685235353410244
1678040543235955500,6.39795556640625,0.06161416013091802,-0.05347695783935487,-0.03494038047790527
1678040543255826400,6.417826416015625,-0.030171923967078327,-0.02540514795668423,-0.13097381982207298
1678040543275696600,6.437696533203125,0.0012754267632961273,0.07611110671274364,-0.0045434886485338204
1678040543295567600,6.457567626953125,0.028707039046287536,0.08923574202805756,-0.014572715231776237
1678040543315438600,6.4774384765625,0.02784194664955139,0.10848521689921617,-0.07189502338767051
1678040543335308500,6.49730859375,0.10154548076391219,0.05049633459337055,-0.015334931775927542
1678040543355179500,6.517179443359375,0.13269114513397215,0.1627253411307931,-0.04222936844229698
1678040543375050500,6.537050537109375,0.14868264112249016,0.06157843123041093,-0.2045364841610193
1678040543394921500,6.55692138671875,0.1805741554237902,-0.03362864029221237,-0.28344986187815663
1678040543414791700,6.576791748046875,0.24622860392145812,-0.1075342728499323,0.0054810617595911024
1678040543434662700,6.59666259765625,0.2852162870287895,0.02879902817867696,0.09449322416484356
1678040543454533600,6.61653369140625,0.38938276394605636,0.06737754596322774,0.2502209614932537
1678040543474403300,6.6364033203125,0.08086396379563957,-0.3891494666468352,0.5026502466857433
1678040543494274600,6.656274658203125,0.11465279961824416,-0.41849319616146385,-0.23527824390530586
1678040543514145500,6.6761455078125,0.42673955791592594,-0.51287433825396,-0.6119499948382378
1678040543534015500,6.696015380859375,0.7072564350821078,-0.05625058727115392,-1.391372525334358
1678040543553886500,6.715886474609375,0.8545295016676187,0.3774894239913672,-0.27776246389150616
1678040543573757400,6.73575732421875,1.0405313812285661,0.3677790540989488,2.1315198610186576
1678040543593627400,6.75562744140625,0.9466758704453706,0.11302782876491546,-0.941121158927679
1678040543613498400,6.775498291015625,0.13759645283222197,0.008583996210992336,-2.619877962979674
1678040543633369300,6.795369384765625,0.666844199064374,0.213687247409299,-0.8668582373648881
1678040543653239600,6.815239501953125,1.6434361920848488,0.46720250120759005,-0.2083271086156368
1678040543673110500,6.835110595703125,0.757282010358572,0.5246055464494973,-0.7658166144698858
1678040543692981500,6.8549814453125,0.18775953688323496,0.3604456424709409,-0.019702479335665702
1678040543712851500,6.8748515625,-0.1547135918498039,-0.06611176381111145,-0.4091127158105373
1678040543732722400,6.894722412109375,-0.5009820212125778,-0.2638476280465722,0.03496434587538242
1678040543752593400,6.914593505859375,0.19024317039251326,0.5029281868442893,1.0978858380883931
1678040543772463600,6.934463623046875,1.8066548696905373,0.665609396572411,1.0003168597400187
1678040543792334600,6.95433447265625,1.3797896395683287,-0.46486660560593007,0.4170043458431959
1678040543812205600,6.97420556640625,1.873359338697791,-1.0801960137493907,-0.48391632012128827
1678040543832076500,6.99407666015625,1.5202292068719863,-0.7422054372578859,-0.6994859472110867
1678040543851946500,7.013946533203125,0.5943576395243406,-0.31187457685172554,-1.2941469535961747
1678040543871817500,7.0338173828125,0.865521435803175,0.5337792521819472,-0.1937383190318942
1678040543891688700,7.053688720703125,0.45769992884695526,0.1294083971362561,0.4679600415766239
1678040543911558400,7.073558349609375,0.5177344185709953,-0.3754916743028909,-0.4181695902302861
1678040543931429400,7.093429443359375,0.5611316617488861,0.16801891749426723,-0.04326192636042833
1678040543951300400,7.11330029296875,0.7349065124213695,0.09877462781108916,0.35565219764932987
1678040543971170300,7.13317041015625,0.1446504629969597,0.324607071044296,-0.04416209007054567
1678040543991041500,7.15304150390625,-0.5323235004156828,0.3580441342871636,-0.6599896569944917
1678040544010912500,7.17291259765625,-0.19608663572371005,-0.3223401855582371,-0.5167085095893591
1678040544030782500,7.192782470703125,0.36979017472565173,-0.547632347902283,0.054754594826046374
1678040544050653400,7.2126533203125,-0.0019768530309200285,0.49813174634799356,0.7705498535368591
1678040544070524400,7.2325244140625,-1.92705468852818,1.0171773936480284,0.5746999126458541
1678040544090394400,7.252394287109375,-1.693046610689163,0.39347514782622456,-0.07841900006262585
1678040544110265300,7.272265380859375,0.09182254365086555,-0.5070122412875294,-0.24799353123474865
1678040544130136600,7.292136474609375,0.39692543441057204,-0.5537613521765917,-0.4057944946406409
1678040544150007600,7.312007568359375,-0.1676496457904577,0.1376513978898525,0.7506938641399145
1678040544169877200,7.331877197265625,-0.6122732354432344,0.0533171641677618,0.28904428435172885
1678040544189748200,7.351748291015625,-0.720763420778513,0.0025941812116652726,-0.23299364009946583
1678040544209619200,7.371619140625,-0.1830915450721979,-0.07616583257466554,-0.053062024929490866
1678040544229489400,7.391489501953125,0.4769166704922914,-0.2100134542673826,0.9175897689536213
1678040544249360400,7.4113603515625,0.395360669311881,-0.17509141316376625,0.2639794377326965
1678040544269231400,7.4312314453125,-0.5642126766294241,0.30950638641566036,-0.5512120330199599
1678040544289101300,7.451101318359375,-0.8719067529261112,0.36453729569874704,-0.6294950038790702
1678040544308972300,7.47097216796875,0.19233166710436342,-0.03260426568053663,0.5415088965859264
1678040544328843300,7.49084326171875,0.16309154409468174,-0.3524910302046686,0.019434128989372402
1678040544348713500,7.51071337890625,-0.17955343407392502,0.4477444981522858,0.3285159881163388
1678040544368584400,7.53058447265625,0.22496143255233764,0.315035817361623,-0.4317673594826832
1678040544388455400,7.550455322265625,0.33433190785348416,0.08271978426277637,-0.06611936259567737
1678040544408325400,7.570325439453125,0.1937315970301628,-0.12922514952383934,-0.05361483194008469
1678040544428196400,7.5901962890625,0.6651397332340478,-0.09812537012211978,-0.7588245636254548
1678040544448067300,7.6100673828125,0.37002339895963665,0.16429061768613754,-0.3786063722573221
1678040544467938300,7.629938232421875,-0.576477114918828,0.7781202157258987,0.3651692369267344
1678040544487808500,7.64980859375,-0.5799018286705017,-0.010296608815155922,-0.07934037095755338
1678040544507679500,7.669679443359375,0.07730769608616829,-0.1417760400718078,-0.4941097973555326
1678040544527550500,7.689550537109375,-0.0799824682533741,0.10087097903583198,-1.3368731656447053
1678040544547420200,7.709420166015625,-1.430062029212713,-0.3815864840466529,-1.3171172025561333
1678040544567291100,7.729291015625,0.031572949871420855,0.50654250488393,-0.24248452202230691
1678040544587162400,7.749162353515625,0.003050619742274284,0.25411460793092844,-0.5387509031146764
1678040544607032300,7.7690322265625,-0.27480536765158176,0.20902407790385186,-1.0784715280443429
1678040544626903300,7.7889033203125,-0.014774375283718109,0.4054572620429098,-1.7125164503127335
1678040544646774300,7.808774169921875,0.43679625702798364,0.3094000764969736,-1.0286942284405232
1678040544666644200,7.828644287109375,-0.8123615080237389,-0.24091266959570345,-0.2462023735016584
1678040544686515500,7.848515380859375,-1.391430977523327,0.03849909587278962,-0.07497779183387755
1678040544706386400,7.868386474609375,-1.1126391705840826,0.22968057002872228,0.08565817580223083
1678040544726257400,7.88825732421875,-0.028133623072504995,0.118267482984066,-0.009403203639388083
1678040544746127400,7.90812744140625,0.1189446515932679,-0.08040624662339686,-0.3292448138475418
1678040544765998300,7.927998291015625,-0.49450025797784325,-0.5549672939002513,-0.5126403103023767
1678040544785869300,7.947869384765625,-0.5908420326188206,-0.26863310875743623,-0.20792904920876024
1678040544805739500,7.967739501953125,-0.3423471642658114,-0.19797909840680658,0.1577116046220064
1678040544825610500,7.987610595703125,0.08542816643863915,-0.15113967888578772,0.4548410322844982
1678040544845481500,8.0074814453125,-0.9381639165572822,-0.3468129115030169,-0.5348094720125198
1678040544865351400,8.027351318359376,-0.33356494206897913,0.09882343538887799,-0.6312813027739524
1678040544885222400,8.047222412109376,0.29404549017250536,0.4821484336659312,0.307925546965003
1678040544905093400,8.06709326171875,-0.04120178809338249,0.2701282426860183,-0.42307109853625297
1678040544924964400,8.08696435546875,-1.165253739440441,0.21271547976769506,0.08977204086184501
1678040544944835000,8.1068349609375,0.48404023876190183,0.23057445012852548,0.4755769463211298
1678040544964706000,8.1267060546875,0.3414239119410515,-0.8336253914572298,-0.03849602713286877
1678040544984577000,8.146576904296875,0.6094296095151454,-1.0211997079666704,-0.26481296594738957
1678040545004447000,8.166447021484375,0.21584172202944754,-0.5611160988535732,-0.29158874467015267
1678040545024318000,8.18631787109375,-0.05922138324286788,-0.2760140127889812,-0.15766133573949337
1678040545044189000,8.20618896484375,-0.1259580374866724,0.18156133983023465,0.3001835545361042
1678040545064059100,8.22605908203125,0.19440558730158955,-0.05085267375037074,-0.18771569774150848
1678040545083930000,8.24593017578125,0.1595464553663507,-0.13889372610114514,-0.2647831553310156
1678040545103801000,8.265801025390624,-0.08847842085473238,0.5974248450752347,0.573513588938117
1678040545123672000,8.285672119140624,-0.13565120051596313,0.6502095098014921,0.765489866733551
1678040545143542000,8.3055419921875,-0.10572711383011192,0.5305743186607956,0.4100970506727695
1678040545163413000,8.3254130859375,0.01769698473215103,0.14502426474541424,-0.084870824816823
1678040545183284000,8.345283935546876,0.042940147060155864,-0.10739844457581639,-0.2052723972201347
1678040545203154200,8.365154296875,0.09133505239486694,-0.24065358026809988,0.006376549294590949
1678040545223025200,8.385025146484375,-0.055740007400512694,-0.14964271832630038,0.050935237467288966
1678040545242896100,8.404896240234375,-0.04164955926034599,-0.3527404749210924,-0.15276947204470634
1678040545262765800,8.424765869140625,0.4034580510497093,-0.37358028772361573,-0.41439620917141434
1678040545282636800,8.44463671875,0.2287140630841255,-0.0021990444142371414,-0.0507376690685749
1678040545302508000,8.464508056640625,0.09004325901865959,0.16021766915880142,0.16515139923393726
1678040545322379000,8.48437890625,0.5001391406476497,0.11426789195388555,0.08798866457641125
1678040545342249000,8.5042490234375,0.010693243449926376,-0.06701185445599257,-0.1557774216890335
1678040545362120000,8.524119873046875,0.006940032962826081,-0.040384690423682326,-0.19455285028517244
1678040545381991000,8.543990966796875,0.20488895086050032,0.22366759334951639,0.06773498109877109
1678040545401860900,8.56386083984375,0.08061024476289749,0.3738303169619292,0.2455588149011135
1678040545421731800,8.58373193359375,-0.1549450625181198,0.08163162369988858,-0.09270341813862323
1678040545441603000,8.60360302734375,0.015618434025580063,-0.026566519886255264,-0.10604454574882984
1678040545461473000,8.62347314453125,0.27064764518393203,-0.012994944521039723,-0.14166998588144777
1678040545481344000,8.643343994140626,0.15178513718247413,0.0011546499278396367,-0.21644553314149378
1678040545501215000,8.663215087890626,0.012520440610777585,-0.12996646941043435,-0.2172948434472084
1678040545521086000,8.6830859375,0.0611900529673323,0.04256619918122887,-0.21692016491591928
1678040545540956000,8.702955810546875,0.014810579108260571,-0.07893179015666246,-0.1552466758131981
1678040545560827100,8.7228271484375,0.15488777937293052,-0.017318945199996234,0.03501636832356453
1678040545580698000,8.742697998046875,0.20996727703809737,0.005402881956845521,0.12353402521014213
1678040545600568000,8.762568115234375,0.01592588340640068,-0.009722790982574224,0.263260475808382
1678040545620439000,8.78243896484375,0.10855388908809982,0.04764021450988948,0.3711784142136574
1678040545640310000,8.80231005859375,0.07374445064663887,0.11976999650150537,0.3357143021225929
1678040545660181000,8.822180908203125,0.09833587106764316,0.16995098153539,0.444574489814043
1678040545680051200,8.84205126953125,0.15064066158877684,-0.1143229100767523,0.14238719424009322
1678040545699922200,8.861922119140624,0.5032599030166864,-0.06578033989965916,0.11356091272830962
1678040545719793200,8.881793212890624,0.623588994705677,-0.02789353070631623,0.19378245043456555
1678040545739662800,8.901662841796876,0.6541403464443981,-0.05009221077188849,0.03890226984620094
1678040545759533800,8.921533935546876,0.44095922192633147,-0.033206834683567284,-0.07854220631718635
1678040545779405000,8.941405029296876,0.6716735189169645,0.10569880105108022,0.35262335134744643
1678040545799275000,8.96127490234375,1.2490095887526869,0.09361205741614102,0.6483294682085514
1678040545819146000,8.98114599609375,1.1106418592870235,-0.00015168343037366867,0.00170621939599514
1678040545839017000,9.001016845703125,0.662444502800703,-1.0925362937539815,-0.20278817918896674
1678040545858888000,9.020887939453125,1.390938225570321,0.11568857240676879,0.09515081129074096
1678040545878758000,9.0407578125,1.0255652827650308,0.9476849013574421,1.0372861156970261
1678040545898628900,9.06062890625,0.269608968052268,0.6223072843320667,0.28723990181088443
1678040545918499800,9.080499755859375,0.5993710837721824,-0.3033202451266348,0.1783949116885662
1678040545938370000,9.1003701171875,1.2564847469389437,-0.47450420252308245,0.2565291217267513
1678040545958241000,9.120240966796874,0.8559756088227033,-0.5311809062518179,-0.22632921377420423
1678040545978112000,9.140112060546874,1.134665708953142,-0.230430803874135,0.4187801233440637
1678040545997983000,9.15998291015625,0.9725292736262082,-0.2009274998836219,0.5129898543924093
1678040546017853000,9.17985302734375,-1.3101485325872897,0.3891961553327739,0.6385808121323585
1678040546037724000,9.199723876953126,0.005799041667580604,0.08985781944915652,0.21946108157038688
1678040546057595100,9.21959521484375,1.1209183386296033,-0.12735299897640942,0.08980623539239167
1678040546077465000,9.239465087890625,1.1104062969654798,0.23561112912148235,0.11842384258955717
1678040546097336000,9.259336181640625,0.4937234283864498,0.19741788432747123,0.029881781914085147
1678040546117207000,9.27920703125,-0.20346680910289286,0.3400906175106764,0.150259827311337
1678040546137078000,9.299078125,-0.8410042496621608,-0.33233379283882675,-0.25567798479013143
1678040546156948000,9.318947998046875,-0.28963585703670974,0.005568301651626825,-0.11217654569782316
1678040546176819200,9.338819091796875,-0.6462029775738716,0.49118704177662725,0.7494926716566085
1678040546196690200,9.358690185546875,0.34147651891112324,-0.3642152972027659,0.45629265586491674
1678040546216559900,9.378559814453125,0.1702735645532608,0.04545695218667388,0.39910738155953585
1678040546236430800,9.398430908203125,-0.2793605467379093,0.17143778602704404,0.32060821066647766
1678040546256301800,9.4183017578125,-0.15054770434200762,0.00838818137794733,-0.3209264463027939
1678040546276173000,9.438173095703124,0.2672726340591907,0.15359233273491263,-0.14574943721480665
1678040546296043000,9.45804296875,-0.39890053387582297,-0.01976195443794131,-0.08806925553195177
1678040546315914000,9.4779140625,-0.3137362790703773,0.1400472069852054,0.07810388796515762
1678040546335785000,9.497784912109376,0.1471586464256048,0.2258024134211242,0.17751104152612387
1678040546355655000,9.517655029296876,0.3088227880656719,0.05717164763882756,-0.13435221021398902
1678040546375526000,9.53752587890625,0.024746903243660925,0.0578192978926003,-0.09956935838535427
1678040546395396900,9.55739697265625,-0.3980506390482187,-0.004024433210492134,0.08702887963354587
1678040546415267800,9.577267822265625,-0.4973141463547945,0.007459960617125034,0.12835092397257686
1678040546435138000,9.597137939453125,-0.18877777401506898,0.02103212050423026,0.022363369107991457
1678040546455009000,9.617009033203125,0.16700842527747153,-0.01663242424055934,-0.14775379930716007
1678040546474880000,9.6368798828125,0.05051847335994243,0.20181568089500068,-0.052620669803582126
1678040546494750000,9.65675,-0.15639467680454253,-0.055278819629549975,-0.10079294536355882
1678040546514621000,9.676620849609375,0.20466624802052974,0.10394085146784782,0.19351305890865622
1678040546534492000,9.696491943359375,0.14945231032073497,-0.09300064751952886,-0.2904158284332603
1678040546554363100,9.716363037109375,0.24353753820657728,0.000890665229409933,0.16604224712643773
1678040546574233000,9.736233154296874,0.11951835982799529,0.06985168099179863,0.15480894198305903
1678040546594104000,9.75610400390625,-0.08129413537383079,-0.010093231730163096,-0.03256440859418362
1678040546613975000,9.77597509765625,0.007642623707652092,-0.10418050544261932,-0.16648133266344667
1678040546633845000,9.795844970703126,0.11241115817129611,-0.13713701862692831,-0.10810830987822263
1678040546653716000,9.815716064453126,-0.06864566620290279,-0.10419687205553055,-0.06390292865522205
1678040546673587200,9.835587158203126,0.15535715045034884,0.0860860458254814,0.2179793551126495
1678040546693458200,9.855458251953126,0.09715221424102782,-0.0033035715900361536,0.11419791372390463
1678040546713327900,9.875327880859375,-0.09480243624448775,-0.04663359475061297,-0.06330041445111856
1678040546733198800,9.89519873046875,0.26006255654990673,-0.05156038362830877,-0.0015055274584330617
1678040546753070000,9.915070068359375,0.25181319912075995,-0.07450023745000361,0.13636073702480644
1678040546772941000,9.934941162109375,-0.5277653987199068,0.24581191287934778,0.17581086827842518
1678040546792811000,9.95481103515625,-1.064386888590455,0.16438289907947182,0.033878852193616325
1678040546812682000,9.974681884765625,-1.125820139196515,0.29126345823854205,-0.12912870341204105
1678040546832553000,9.994552978515625,-0.8217161963462829,0.42732875598073006,-0.23407997403144834
1678040546852423000,10.0144228515625,-0.15512626430392265,0.5543588066130877,-0.10132020237436518
1678040546872294000,10.0342939453125,-0.40763913612663744,0.8805480322822928,0.165143690851517
1678040546892164900,10.054164794921874,-3.366083868050575,-0.4774737198531627,-0.12099159245202318
1678040546912035800,10.074035888671874,-2.4120091195255515,1.0584294414907693,-0.16035766215138136
1678040546931905300,10.0939052734375,-1.2380980263769625,1.4388848026156424,0.09194014214854687
1678040546951776300,10.1137763671875,-0.5307464603573083,1.3710206421792506,-0.1551405302912928
1678040546971647200,10.133647216796875,-0.9707710317820311,1.360882110002637,-0.9499245700430125
1678040546991518200,10.153518310546875,-0.7055670206904411,-0.3020826661556959,0.4042338942604139
1678040547011388400,10.173388427734375,-0.60608957837224,0.2028992383480072,0.14007778478655963
1678040547031259400,10.19325927734375,-0.5730950712651014,0.7600602429002523,0.20445837742350995
1678040547051130400,10.21313037109375,-0.6606032588481903,0.629368747150898,0.049111602236703036
1678040547071000300,10.233000244140625,-2.022511789289117,1.1570821234226225,0.45409361145067956
1678040547090871300,10.252871337890625,-2.751643225440383,1.2561883943408727,0.23029329509958624
1678040547110742300,10.2727421875,-1.5279633082553743,1.4892834489881992,0.46585758940465744
1678040547130613200,10.29261328125,-0.6597784984618424,1.5740169111609459,0.009044818655773997
1678040547150483500,10.3124833984375,-0.17018880887925625,1.1380950988799332,-0.24883798270225524
1678040547170354400,10.3323544921875,-0.19470584888979792,0.52788990188241,0.20711488328166305
1678040547190225400,10.352225341796874,-0.46388358591794965,0.9635352353096007,0.1640850121114403
1678040547210095400,10.372095458984376,-0.2638596107453108,1.3904261843949555,0.47621769191008056
1678040547229966300,10.39196630859375,1.4371534487783908,1.1073954247117042,0.16627996487244961
1678040547249837300,10.41183740234375,4.074979156380891,1.2377327001959084,-0.30695633660666644
1678040547269708300,10.431708251953125,2.6206606377899644,0.3249702052682638,0.18190028946101663
1678040547289578200,10.451578125,-0.007771821311581879,0.573759672653675,0.7121528288215399
1678040547309449200,10.47144921875,0.4071533253710717,0.8319085045367479,0.31166714464612305
1678040547329320200,10.4913203125,0.1114645980361849,0.4701216035246849,0.054540203156694764
1678040547349191200,10.511191162109375,0.034493805754184724,0.20012626650333404,-0.3156930391613394
1678040547369061000,10.53106103515625,0.04653130341991782,-0.23369652767181395,-0.44643436540178955
1678040547388932400,10.550932373046875,-0.20789595065675676,-0.35660394541621204,-0.2643919640563428
1678040547408803300,10.57080322265625,-0.07121259408146142,-0.231751238822937,-0.07666625637747347
1678040547428673300,10.59067333984375,-0.517303187546879,-0.1535597456395626,0.0704199093338102
1678040547448544300,10.610544189453124,0.029961276891082522,-0.06163607970178127,0.015882701851800084
1678040547468415200,10.630415283203124,-0.014665800342708825,0.03593056055903435,0.08902436429969966
1678040547488286200,10.6502861328125,-0.17163433151245117,0.06257657542228698,-0.0347778833925724
1678040547508156400,10.670156494140626,0.18135361536368727,0.07331658062338829,-0.09001885522976517
1678040547528027400,10.69002734375,0.4783233224198222,0.06503156735897064,-0.2937218842413276
1678040547547898400,10.7098984375,0.395137820341438,0.12952303649187089,-0.18324790467768906
1678040547567769300,10.729769287109375,-0.34380291603207586,-0.0588029021024704,0.18138415663242338
1678040547587639300,10.749639404296875,0.15411372626051306,-0.13975509217083454,0.2615866243120283
1678040547607510300,10.76951025390625,0.1962111388862133,-0.0026478841602802275,0.04360182583928108
1678040547627381200,10.78938134765625,0.7135971824109554,0.0286345583319664,-0.04183364712297916
1678040547647252200,10.809252197265625,0.17873861055970192,-0.07051788981556892,-0.08488061555847524
1678040547667122400,10.829122314453125,-0.4029052394725382,-0.09090250619649887,-0.014868848634138702
1678040547686993400,10.848993408203125,0.17704466612339018,-0.14171908572018146,-0.040695509938523174
1678040547706864400,10.868864501953125,-0.14149419092312454,0.0767272658497095,-0.0683952716384083
1678040547726734300,10.888734375,0.6952852075856178,0.1804378156930208,-0.13697174506261944
1678040547746605300,10.908605224609374,1.122666716666892,0.06004793372750282,0.004900704588368535
1678040547766476300,10.928476318359374,-0.11143792922496795,-0.027382512444257736,0.22827757136300206
1678040547786347300,10.94834716796875,0.012861783128045498,0.23582360282838344,0.07996135240010917
1678040547806217200,10.96821728515625,1.6623475210428238,0.14924305148422717,-0.16484437911137936
1678040547826088200,10.988088134765626,1.055718428966403,-0.1436176128178835,-0.16436908974982797
1678040547845959200,11.007959228515626,0.023863142679072916,0.20299451541602612,-0.1570338880235329
1678040547865830100,11.027830078125,1.003725791400671,0.1558650999724865,-0.12267317059710621
1678040547885700400,11.047700439453125,1.5663732645399868,-0.13616788133382796,0.22044260342102495
1678040547905571300,11.0675712890625,1.7807117423996328,-0.3112660895645618,0.35099311979711056
1678040547925442300,11.0874423828125,1.713440579420328,-0.09459960714876652,-0.004422931008785963
1678040547945313300,11.107313232421875,2.3873747367456555,0.1443009189069271,-0.41898609424494204
1678040547965183000,11.127182861328125,1.6364038092300295,0.6564940699636935,-0.5387534603979438
1678040547985054000,11.147053955078125,0.7896616004377603,1.2472352725565432,-0.4408878371905535
1678040548004925000,11.166925048828125,1.3882906336709857,1.0022457819759845,-0.06724158069179392
1678040548024795100,11.186795166015624,2.3830682717233893,0.740722505223751,0.5305426814135163
1678040548044666000,11.206666015625,1.210284136778116,0.9635229603499174,0.10732596386149525
1678040548064537000,11.226537109375,-1.2275702026218176,1.0402192465394735,-0.05858443704620003
1678040548084408000,11.246407958984374,-2.112876535347104,0.6441758556604384,-0.1083156507522799
1678040548104278000,11.266278076171876,-1.1404261721760034,0.9899854353398084,-0.1834647988313809
1678040548124149000,11.28614892578125,0.5751859060645104,0.2888064204752445,0.3229644549364224
1678040548144020000,11.30602001953125,0.633596593979001,0.057652563023567194,-0.009447700368240474
1678040548163891200,11.32589111328125,-0.01995557731389999,-0.638527620640397,0.025582879143767057
1678040548183761200,11.34576123046875,-1.2103612936675547,-0.23330606704950332,0.1656913695958443
1678040548203632000,11.365632080078125,0.08001870861053466,0.8361199847519397,0.30859712608363477
1678040548223503000,11.385503173828125,0.14788579165637492,0.46530192828327416,-0.00035071313381195067
1678040548243374000,11.4053740234375,-1.709783225956559,-1.0187626170128583,0.006508468578569591
1678040548263244000,11.425244140625,-1.508577347522974,-0.8477174835652113,0.03469352957736701
1678040548283115300,11.445115234375,-0.84928634031713,-0.2878114180885255,-0.3023559301391244
1678040548302986200,11.464986328125,-1.592944314470887,-0.6192522806756198,-0.2918543002711609
1678040548322857200,11.484857177734375,-0.3558329610437155,-0.40293307732753453,0.07397719995658844
1678040548342727200,11.50472705078125,0.6071282737702131,0.03982522991001606,0.3614695786911994
1678040548362598100,11.52459814453125,0.549645222094655,-0.03709390524998307,-0.17020776930805295
1678040548382469000,11.54446923828125,0.05025719207525253,0.4496799231942743,-0.1214761062996462
1678040548402340000,11.564340087890624,-0.8597849379777908,1.1343030131205916,0.4419437029190361
1678040548422210300,11.584210205078126,-1.2774907100886106,0.547938710437715,0.23388003101255744
1678040548442081300,11.604081298828126,-0.6063678107917309,0.13836670655235647,0.08433744859248399
1678040548461952300,11.6239521484375,-0.31633857052326203,-0.13805727527700365,0.0031895898215472695
1678040548481822000,11.643822021484375,0.003616436931490898,-0.23605068958252667,-0.48920273609161374
1678040548501693000,11.66369287109375,0.8980793050587177,0.038747225414961575,-0.20757207073094322
1678040548521564000,11.68356396484375,-0.23890052605569362,0.02924911003373563,0.003632511283457279
1678040548541435100,11.70343505859375,0.1714759260803461,-0.9629568508997559,0.20097729384209959
1678040548561305000,11.72330517578125,0.6598346125632524,-1.017004302103445,-1.2791630272150039
1678040548581176000,11.743176025390625,-0.20733342140316963,-0.8183990346223116,-0.3598222498755902
1678040548601047000,11.763047119140625,-0.24105974991619586,0.011049984465725719,0.2048658622458577
1678040548620918000,11.78291796875,0.33844986456632614,0.36366646768096833,0.3716344874180853
1678040548640788000,11.8027880859375,-2.1986954546689987,0.2164321622032672,-0.5095920651802793
1678040548660659200,11.8226591796875,-0.7456874341547489,-0.0673130293596536,-0.4317228262212127
1678040548680530200,11.8425302734375,-0.9535802430063486,0.1494631970409304,-0.5604704944264144
1678040548700401200,11.862401123046874,-0.22651742982268333,0.4543314753271639,-0.11573776357704772
1678040548720271000,11.88227099609375,1.6973422620564698,0.3963406202599406,0.16316561397789045
1678040548740142000,11.90214208984375,2.5759716012358664,0.18071473293825982,0.36371984183602035
1678040548760013000,11.922012939453126,0.15597499008774757,0.12624584145210682,0.36201157661341127
1678040548779884000,11.941884033203126,-1.596100148153305,0.48743726078905164,0.5907657525122165
1678040548799754200,11.961754150390625,0.7940215492129326,1.12260081182383,1.436030289967358
1678040548819625200,11.981625244140625,0.9411895479887723,0.3396398780684918,0.8688328984387218
1678040548839496200,12.00149609375,0.34823066934645175,0.07268149759024381,0.5120694516118616
1678040548859367200,12.0213671875,-0.22604221352636814,-0.3242690347289666,0.0045078328132629394
1678040548879237000,12.041237060546875,-0.30781331876218315,-0.31127664749119427,0.11347677810881286
1678040548899108000,12.061108154296875,-0.016949381235241888,0.11267273171693086,0.40424686333984133
1678040548918979000,12.08097900390625,-0.2359510286003351,0.10978559544067829,0.4643570121159777
1678040548938849800,12.100849853515625,-0.18110650873482226,0.10164284019116311,0.1775073517316952
1678040548958719700,12.1207197265625,2.0447055009186266,-0.8665273249100893,-1.7007367268003521
1678040548978590700,12.1405908203125,-0.4476473213881254,-1.1112435515072197,-0.9270945332713425
1678040548998461700,12.160461669921874,-0.969204513117671,-0.07280757165532559,0.1777258167879656
1678040549018332700,12.180332763671874,-0.766860570564866,0.1740123857554048,-0.09231609932146966
1678040549038203000,12.200202880859376,-0.697445089033246,-0.07368928639329969,0.18786197434440255
1678040549058073900,12.220073974609376,-1.1070844590663909,0.09123531834743917,0.3350060807880014
1678040549077944800,12.23994482421875,0.3501531618416309,-0.2181792250663042,-0.5782260774780065
1678040549097815800,12.25981591796875,1.1631699189037084,-0.1250486675567925,-0.5529831343457102
1678040549117685800,12.279685791015625,0.2802361605286598,-0.054620209590345616,0.054611076435819264
1678040549137556700,12.299556640625,-1.7070675372570752,-0.4366429661624133,0.20142869087141005
1678040549157427700,12.319427734375,-0.8864403051912784,-0.3408684700153768,0.17672654008492827
1678040549177298700,12.339298583984375,1.3586100734174251,-0.5243611432343721,0.2175987217646092
1678040549197169000,12.3591689453125,1.3465665844023227,-0.08443184887766837,-0.0165477781644091
1678040549217040000,12.379039794921875,0.07504384280741214,-0.13386428056657312,0.3458465506888926
1678040549236910800,12.398910888671875,-0.1914361795693636,-0.0918640447050333,0.7277914927843958
1678040549256781800,12.41878173828125,-0.010234978288412093,-0.8959156972840427,-0.44601946445796636
1678040549276651800,12.43865185546875,-0.025708441752195357,-0.7096575048744678,-0.6501410476751626
1678040549296522800,12.458522705078124,0.4991618200480938,0.4827081133753061,-0.8998959990918636
1678040549316393700,12.478393798828124,-0.052369654184579846,-0.7969535110116005,-0.8332423834890127
1678040549336265000,12.498264892578124,-1.9260335287868975,-2.0260960775166748,0.9847918852847068
1678040549356135000,12.518135009765626,1.3022463811606169,-1.1886527352064846,0.1588039299033582
1678040549376006000,12.538005859375,2.161256243112683,-0.4368482794761657,0.02038560276161879
1678040549395876900,12.557876953125,4.707341240128875,2.5865795044898987,-0.2040557879719883
1678040549415747800,12.577747802734375,-4.244572337454557,0.6800830353438854,-1.158506018745899
1678040549435617800,12.59761767578125,-3.053911769556999,-0.8136766822755336,0.3378454689323902
1678040549455488800,12.61748876953125,0.14508184015154837,-2.594133865392208,1.0008267089582978
1678040549475359700,12.63735986328125,0.6246528245449066,-1.712049417322874,1.006220457760617
1678040549495230700,12.657230712890625,-0.26075463046729563,-0.47655835857391354,0.29530652308426797
1678040549515100700,12.6771005859375,-0.0824696088939905,-0.06268003579676151,-0.20539448922984302
1678040549534971600,12.6969716796875,-1.4694067821294068,-0.6786708304584026,-0.058191053814440966
1678040549554842600,12.716842529296875,0.9503180263400077,-0.5839262618809938,-0.6392072734676301
1678040549574713600,12.736713623046874,0.5604574157491325,-0.2898895395368338,-0.8160938264198601
1678040549594583800,12.756583740234374,-0.20852847640663383,-0.7927624890625476,1.1247850970603526
1678040549614454800,12.776454833984374,-0.37489275856167076,-1.1695394539356232,2.273085802003741
1678040549634325800,12.79632568359375,-0.560801699142158,0.033653263276815414,1.083429881104082
1678040549654196700,12.81619677734375,0.2989759323120117,0.819683229213953,-0.10838029522001742
1678040549674066700,12.836066650390626,-0.1257259822964668,1.0777595803827047,0.30532471681684253
1678040549693937700,12.855937744140626,-0.543069350835681,1.7523510325729845,-0.051462914603203534
1678040549713809000,12.875808837890625,-0.6079576372664421,1.6868161918669937,-0.8535087803177535
1678040549733679900,12.895679931640625,-0.0949462103630416,0.8729396031051874,-0.8842495902139693
1678040549753549800,12.9155498046875,0.10557926632463932,1.4016542653739452,-1.0727043428197502
1678040549773420800,12.9354208984375,-0.5043383459031582,0.9955664503425359,-0.33209012027606366
1678040549793291800,12.955291748046875,-0.6605155805647372,0.6464946539968252,-0.3567750641994178
1678040549813162800,12.975162841796875,-0.14878537084460258,0.30342648198008537,-0.46914048353284593
1678040549833033000,12.995032958984375,0.16188567543625831,-0.020593290695548057,-0.6213986450545489
1678040549852904000,13.014904052734375,-0.34804654495120046,0.36067864750921724,-0.724088473547995
1678040549872775000,13.03477490234375,-0.33772622646689415,0.07077975562214851,-0.6275839826259761
1678040549892646000,13.05464599609375,-0.12112696406841278,-0.6099409931033849,-0.22569946450330317
1678040549912515800,13.074515869140624,0.2418085041905753,-0.5443640668213368,0.4955037359319627
1678040549932386800,13.09438671875,-0.10333881218777968,-0.39680443837940693,0.5814361620983108
1678040549952258000,13.114258056640624,-0.19712297476781532,-0.5518909551948309,-0.2303636751883663
1678040549972129000,13.13412890625,-0.05036475323610939,-0.5845417634308337,-0.23584375056726856
1678040549992000000,13.154,0.0957107467284426,-0.2403647533893585,0.2933005535567179
1678040550011870200,13.1738701171875,0.06555412992835044,-0.062464931741356845,0.20841683272570372
1678040550031741200,13.1937412109375,0.27895488854646683,-0.19539689989387987,-0.1348787183061242
1678040550051612200,13.213612060546875,0.41824411677122114,-0.12165829446613788,0.17410576312728226
1678040550071483100,13.233483154296875,0.09496609324044547,0.20565993523299692,0.24535795856676995
1678040550091353000,13.25335302734375,0.21573533904552458,0.40040041704475876,0.34920747848935424
1678040550111224000,13.27322412109375,0.07927401858991943,0.5480523999452591,0.14065782229737378
1678040550131095300,13.29309521484375,0.03716389261311851,0.6884247472316026,-0.034794167807092886
1678040550150966300,13.31296630859375,0.022216507983207703,0.5671843859165907,-0.17437303576134144
1678040550170836200,13.332836181640625,0.02965806072738487,0.620155513125658,0.16742504325434565
1678040550190707200,13.352707275390625,-0.01727612897157669,0.23716741865277288,-0.13097981117144225
1678040550210578200,13.372578125,-0.17311196631696074,0.0514653988212347,-0.34520891037248075
1678040550230449200,13.39244921875,-0.3456552293678745,-0.2642401344954967,0.23543089545005932
1678040550250319000,13.412319091796874,0.01735496636144817,-0.48660979698896406,0.5637372411374002
1678040550270190300,13.4321904296875,-0.24072489193864166,-0.026283611291646955,0.3155464702975005
1678040550290061300,13.452061279296874,-0.6566146276034415,0.3018693156659603,-0.07020730776274577
1678040550309932300,13.471932373046876,-0.4017259665600955,0.03724222767949104,-0.3968780150722712
1678040550329802000,13.491802001953126,-0.19521321389004587,-0.03150923698544502,-0.6383532139215617
1678040550349673000,13.5116728515625,1.08903325406909,0.37689854542613027,0.27382190957218405
1678040550369544000,13.5315439453125,0.7041548158049583,0.5807780269831418,0.9855693724632263
1678040550389415000,13.551414794921875,0.5749482979163527,0.47926411040127276,-0.15732932730615137
1678040550409285000,13.57128515625,0.5622580354303122,0.13944412652552127,-0.5367432896193116
1678040550429156000,13.591156005859375,0.8089084449604154,-0.03857961376309395,-0.5566152072377503
1678040550449027000,13.611027099609375,0.6661150080069899,-0.04188333148360252,0.4957016696568578
1678040550468898000,13.63089794921875,0.002722410701215267,0.06591828706562519,0.42857239936627445
1678040550488769000,13.65076904296875,-0.10078969396054745,0.2380518002718687,0.13857062249346636
1678040550508639000,13.670638916015625,0.8611264157146215,0.6742272950530052,-0.29199381833970545
1678040550528510200,13.69051025390625,0.40221301942467685,0.6960802304208278,-1.0974364868856965
1678040550548381200,13.710381103515624,0.2221568965256214,1.1909879001557826,-0.017462591454386712
1678040550568252200,13.730252197265624,-0.41881461013555527,1.6517770271897314,1.083526984803006
1678040550588122000,13.7501220703125,1.2319810048013924,0.9143623313397169,0.43729266224279995
1678040550607993000,13.7699931640625,1.148914599058032,0.8769079222142696,-0.15452040736526249
1678040550627864000,13.789864013671876,0.44408115333914755,2.1033231095820666,-0.06464475999847054
1678040550647735000,13.809735107421876,-0.2925713259667158,2.313700720986724,0.4139798834554851
1678040550667605200,13.829605224609375,-0.057522799164056775,1.8200258079171179,1.1007969032295049
1678040550687476200,13.849476318359375,0.9548340424597263,1.930175889288634,1.5516459432683885
1678040550707347200,13.86934716796875,2.435134559047222,1.184184796012193,-0.5026562380351126
1678040550727218200,13.88921826171875,3.2612790932297706,-2.0927159369803965,-0.36089418995603917
1678040550747089200,13.909089111328125,2.5470921282321215,-0.03604110826142132,0.24388196773007512
1678040550766959000,13.928958984375,1.753353487613797,-0.8259560989383607,0.13656389491409063
1678040550786830000,13.948830078125,-0.2002501851439476,-0.07491846286207438,-0.7282124216102063
1678040550806701000,13.968701171875,-0.5255173275321722,0.46536739473491906,-0.7798426556043326
1678040550826572300,13.988572265625,0.21767069102227687,-0.18548866934180258,-0.6272948634862899
1678040550846442200,14.008442138671874,-0.12464929297566413,-0.37473669121712444,-0.3100122170459479
1678040550866313200,14.028313232421874,-1.5734107619613409,0.14744900767430663,0.6746765731904655
1678040550886184200,14.04818408203125,-2.5827514706343413,0.6283763751126825,0.46107861149981616
1678040550906055200,14.06805517578125,0.27067396693527696,0.050221097848564385,0.08589850563043729
1678040550925925000,14.087925048828126,1.005505076032877,-0.5560667795747518,-0.435761178359203
1678040550945796000,14.107796142578126,0.5894798043549061,-0.4972016258910298,-0.3826611275408417
1678040550965667000,14.1276669921875,0.9211030377715825,-0.34232056851983067,-0.0501327985106036
1678040550985538000,14.1475380859375,0.930468247488141,-0.14202902845218776,-0.35143414156287905
1678040551005408000,14.167407958984375,0.536036383458972,-0.16533303941115737,-0.21893515800014138
1678040551025279000,14.187279052734375,0.04804419220089912,0.1544502647385001,-0.45863392176143825
1678040551045150000,14.20714990234375,0.4253068947643041,0.06706950292736291,0.041333479048497976
1678040551065021000,14.22702099609375,0.13461305310726165,0.30045126556158064,0.447743877097778
1678040551084892200,14.24689208984375,-0.10353577779829501,0.3216872380748391,0.5650140926728024
1678040551104762000,14.26676220703125,-0.09805471603870392,0.0641908787511289,0.020795535269379616
1678040551124633000,14.286633056640625,-0.26825229274630547,-0.3579818096406758,0.42808235082700846
1678040551144504000,14.306504150390625,-0.183261056420207,0.13605017323829233,0.18515910859387366
1678040551164375000,14.326375,-0.42206572088599204,0.06438084836527705,0.2181340707503259
1678040551184245000,14.346244873046874,-0.6359674147635698,0.12107881407774984,-0.10800345213110558
1678040551204116200,14.3661162109375,0.09930793097019194,-0.2100755597181618,-0.17641889890786258
1678040551223987200,14.3859873046875,0.24467677136957644,-0.3074388594266027,-0.09270736366137862
1678040551243858200,14.405858154296874,-0.6297820041269063,0.21916735932081938,0.0956209495531395
1678040551263729200,14.425729248046874,-0.3061094374537468,0.16361746766492724,-0.016979538911487905
1678040551283599000,14.44559912109375,-0.055932899624109265,0.1400438459843397,0.06060635306155309
1678040551303470000,14.465469970703126,0.11522913820147514,0.1942810476064682,0.04951313224229961
1678040551323341000,14.485341064453126,0.4070481844961643,0.0686066493667662,-0.09557988689038902
1678040551343212000,14.5052119140625,0.3310164996951818,0.10254106767252087,-0.15950480818171053
1678040551363082200,14.525082275390625,0.005620762491226196,0.11331205253377556,-0.016019151180423796
1678040551382953200,14.544953125,-0.08634557354450226,0.22511662311404942,0.23850856759604067
1678040551402824200,14.56482421875,-0.14806348631083965,0.25877339352220297,-0.0835051624868065
1678040551422695200,14.584695068359375,0.45117081933915615,-0.14458280458822845,-0.16064163019191474
1678040551442565000,14.604565185546875,0.7765677255868911,-0.30020839671641586,0.028136947540752587
1678040551462436000,14.62443603515625,0.34151275926828384,0.01266790452376008,0.18171923380568622
1678040551482307000,14.64430712890625,-0.05209317533075809,0.007884469639509915,0.09302468598224223
1678040551502178300,14.66417822265625,0.04981763161420822,0.18167948631718753,-0.028079956656508146
1678040551522049300,14.68404931640625,-0.07101882507503032,0.16272767921835182,-0.10146404955815523
1678040551541919200,14.703919189453124,-0.2095955211162567,-0.08629150526970625,0.12722886114008725
1678040551561790200,14.723790283203124,-0.1241542029350996,-0.036333296141028405,-0.009525660975277423
1678040551581661200,14.7436611328125,-0.365632470524311,0.0874536809168756,0.05466656948272138
1678040551601532200,14.7635322265625,-0.6988163773864507,0.18278277138397098,-0.04763857054207474
1678040551621402000,14.783402099609376,-0.38687224242985246,0.04125190171226859,-0.0983638550531119
1678040551641273000,14.803273193359376,-0.16422727012634275,-0.11307853603884577,-0.08786364995725453
1678040551661144000,14.82314404296875,0.1441132873803377,-0.07190963643491267,0.08965104483067989
1678040551681015000,14.84301513671875,0.24541852964758873,-0.0696279552385211,-0.13123824291191993
1678040551700886000,14.862885986328125,-0.08198270215988158,0.0826167622797191,0.0597933013793081
1678040551720756000,14.882755859375,0.05221007970869541,0.13160349602773785,0.20634945186711848
1678040551740627000,14.902626953125,0.10075579169094562,0.08149506477341055,-0.030233225700259207
1678040551760498000,14.922497802734375,0.36656887459158893,-0.0034722061552107334,0.06453793862313031
1678040551780369200,14.942369140625,0.5371843844503164,-0.0834707487605512,0.2715958310205489
1678040551800239000,14.962239013671875,0.13258125501871107,0.03885258548557758,0.13348083420693874
1678040551820110000,14.982110107421875,0.03131283763051033,0.09946166022717952,-0.13284100193344056
1678040551839981000,15.00198095703125,0.05415887568891048,0.05280176199153065,-0.22527656291611492
1678040551859852000,15.02185205078125,-0.06518295852839946,0.08250321890264749,-0.1478755990559235
1678040551879723000,15.041722900390624,-0.05800444520115852,-0.00022255670949816703,-0.020639066066034138
1678040551899593200,15.06159326171875,-0.03890694602131843,-0.11296411587893962,-0.16877704238519073
1678040551919464200,15.081464111328126,-0.1853179889500141,-0.3641745268009603,-0.15453089222665875
1678040551939335400,15.10133544921875,-0.32856969106495376,-0.7302329676523804,0.03894683964028954
1678040551959206400,15.121206298828126,0.33050212043225763,-1.1317768556438386,0.11482636608686297
1678040551979076000,15.141076171875,-0.05589373665750026,-1.8120162505932151,0.7948130649168044
1678040551998947000,15.160947021484375,-1.2148323016017675,-3.0382728863984343,1.5454448966711758
1678040552018818000,15.180818115234375,-2.0835037258684634,-6.699699883216619,-2.3070472544468936
1678040552038689000,15.20068896484375,-0.26140111167728897,-6.662555855214595,-2.035941179704666
1678040552058560300,15.220560302734375,0.6035106677949428,-5.065997441899776,-0.8240569873187691
1678040552078430200,15.24043017578125,0.6487228514403104,-4.1499256762936705,0.03902694653864018
1678040552098301200,15.26030126953125,-0.249789584338665,-3.4419904651671644,0.5449474196672439
1678040552118172200,15.280172119140625,-0.3410948261171579,-4.2647751675277945,-1.0899687813535333
1678040552138043100,15.300043212890625,1.4431155720531939,-4.201365063890814,-0.19085584066445008
1678040552157913000,15.3199130859375,2.2234014413803815,-4.001476113274693,0.8778327819742262
1678040552177784300,15.339784423828124,1.57458740452528,-3.97937271027714,1.1559128604475408
1678040552197655300,15.3596552734375,-0.1711234593808651,-3.44908597638607,1.188765474865958
1678040552217526300,15.3795263671875,-2.4494740500450134,-3.50024333217144,-0.11974351035337895
1678040552237397200,15.399397216796874,-1.3181331016004085,-3.4678152267754077,-0.8429952773489058
1678040552257267200,15.41926708984375,1.180621404442191,-1.9090020222261548,-0.7516586905840784
1678040552277138200,15.43913818359375,2.528567460504174,1.5573086452051996,-0.3331885830372572
1678040552297009200,15.459009033203126,1.8859078546255825,6.558129266056418,-0.22671298892740158
1678040552316880100,15.478880126953126,0.4645645539194345,9.528199553844333,-0.2599325734946877
1678040552336751000,15.498751220703125,-0.4744646011650562,11.021432617241144,0.9320309667602181
1678040552356621300,15.518621337890625,0.2424953356772661,10.953935536551475,1.6404101222619414
1678040552376492300,15.5384921875,0.11323299594819546,9.366302772492169,1.0529522521886974
1678040552396363300,15.55836328125,-0.7048474742442369,7.596831678292155,1.0336086692932993
1678040552416234200,15.578234130859375,-1.3696990381866692,5.354335660341381,0.8796829398855567
1678040552436104200,15.598104248046875,0.02899754642546177,2.7825764161035416,0.05718998701311648
1678040552455975200,15.61797509765625,1.4631833775699137,0.3843702695462852,-1.0703151095956562
1678040552475846400,15.637846435546875,2.40723825186193,-1.5424109358027576,-2.281335451693833
1678040552495717400,15.65771728515625,1.7071277430117129,-1.8486153580635785,-1.4133122622027992
1678040552515588400,15.67758837890625,0.3433119176447391,-0.8618130097392946,-0.08522270699441432
1678040552535458300,15.697458251953124,0.12518120789527892,-0.5205805287171155,0.007716931052878498
1678040552555329300,15.717329345703124,0.5319172577023505,-0.6345370896995067,-0.548266554152593
1678040552575200300,15.7372001953125,0.24553426498174666,-0.6412030503947287,-0.8540035780973732
1678040552595071200,15.7570712890625,-0.7610404861092567,-0.2778138287525624,-0.3875145589213818
1678040552614941400,15.77694140625,-1.0403110164761542,0.08940525337606668,0.023919549041427672
1678040552634812400,15.7968125,-0.8380383855938911,0.31459903337955475,0.23196152057275174
1678040552654683400,15.816683349609375,-0.41061435254514217,0.3369818378403783,0.13073540795631705
1678040552674554400,15.836554443359375,-0.6178261933952569,0.23673392260633408,-0.2182218220990151
1678040552694425300,15.85642529296875,-0.4673439555048942,0.05803944344930351,-0.25117256312966346
1678040552714295000,15.876294921875,-0.2373550501793623,0.13933051008321343,0.08752002415135503
1678040552734166300,15.896166259765625,-0.150440736836195,0.5442565147936343,0.588189837609604
1678040552754037200,15.916037353515625,0.01930266636312008,0.4758343551483005,0.3226419084511697
1678040552773908200,15.935908203125,-0.0423854357868433,0.0954231984913349,-0.3634593642689287
1678040552793779200,15.955779296875,0.3136813340127468,0.21403796054311094,-0.34005949172005057
1678040552813649200,15.975649169921875,0.44444764856398106,0.7102923687119036,-0.309285144880414
1678040552833520000,15.99552001953125,-0.1375076055049896,1.2236213919308037,-0.29870405656807125
1678040552853391000,16.01539111328125,0.13879063105285167,2.179396003176272,0.3693458650242537
1678040552873262000,16.035261962890626,0.0912450360238552,2.9811721120387316,0.6729077368870378
1678040552893132300,16.05513232421875,0.1744207473605871,3.7464550580233333,0.33556517597548663
1678040552913003300,16.075003173828126,0.16640695225298405,4.326289082154632,0.035661461294069885
1678040552932874200,16.094874267578124,0.3106470808833837,4.988624863883853,-0.023846666468307375
1678040552952745700,16.114745849609374,-0.010052022936940193,5.306758501130342,0.10294245154764503
1678040552972616700,16.13461669921875,-0.6430594188511372,6.357747563487291,0.5224905270569026
1678040552992486700,16.154486572265625,-0.9757008893996476,6.835646230754256,0.3336510494498536
1678040553012357600,16.174357666015624,-0.7665911059737205,6.59147156368792,-1.7214828699700533
1678040553032228600,16.194228515625,0.06927227366864681,7.111468081972003,-2.2760583880737424
1678040553052099600,16.214099609375,1.2913818727970123,7.345078684926032,-1.313917968123406
1678040553071970800,16.233970703125,-0.25865210523009297,6.292265914273262,-0.598964402667433
1678040553091840500,16.253840576171875,-4.2690971223801375,3.8164720125794407,1.2125596074294298
1678040553111711700,16.273711669921877,0.5350649080783129,1.0572161932434887,3.033232261882722
1678040553131582700,16.293582763671875,3.7117245209038257,-6.231238906380534,2.7048870272234082
1678040553151453700,16.31345361328125,3.464302834740281,-11.53062483291626,0.943236982037872
1678040553171324700,16.33332470703125,3.422533485025167,-13.195800270861387,-0.3183822051800787
1678040553191194600,16.353194580078124,0.18564239859879017,-12.698479694765805,-2.623596983502805
1678040553211065600,16.373065673828126,-1.1966390577852726,-10.717935992634295,-3.0637486884385345
1678040553230936600,16.3929365234375,-0.9976081853032112,-8.10852214052379,-2.148098509245366
1678040553250807600,16.4128076171875,-1.6415882261306047,-5.485807492813468,-1.4193933356821535
1678040553270677500,16.432677490234376,-1.7887398582935332,-3.6661283063769337,-1.4915072625175119
1678040553290548500,16.452548583984374,-0.7121738716095686,-2.281555231924355,-1.5756873285911976
1678040553310419500,16.47241943359375,-1.0541215151637793,-0.7984161309100687,-0.3627489509772509
1678040553330290400,16.49229052734375,-1.0648562596678732,0.32925493338275696,0.6657508508697152
1678040553350161700,16.51216162109375,0.17524784583449363,1.0423645880050956,1.5106404175326227
1678040553370031600,16.532031494140625,1.1930676290392874,1.0963127435527742,0.6681394265066832
1678040553389902600,16.551902587890623,0.8486147246658802,0.9893183497332035,0.10221567164305596
1678040553409773600,16.571773681640625,-0.39929976232647896,1.2000811610631643,0.6216496241409332
1678040553429644500,16.59164453125,-0.18854279621541498,1.0382266114175318,0.7823232934389263
1678040553449515500,16.611515625,0.44317982058525085,0.5772123338581994,0.3163471191558987
1678040553469385700,16.6313857421875,0.052066871845722194,0.2690546221051365,-0.1355886018748395
1678040553489256700,16.651256591796876,-0.21348726785779,-0.15660291272774338,-0.578235247165151
1678040553509127700,16.671127685546875,-0.2768207991272211,-0.09685640963222832,-0.06741970460452139
1678040553528998700,16.69099853515625,0.062032385542988774,-0.14975604250766336,0.09713316248068585
1678040553548869600,16.71086962890625,0.265636557289958,-0.32726098308656365,-0.005078654971159995
1678040553568739600,16.730739501953124,-0.20383155076205728,-0.05523366531357169,0.2582673802288249
1678040553588610600,16.750610595703126,-0.5527963796019554,-0.18499573472570627,-0.2957952564492822
1678040553608481500,16.7704814453125,-0.30685996356010437,-0.29265666616261005,-0.38008524917084724
1678040553628352800,16.790352783203126,-0.017268530187010765,-0.09701167325917631,0.015212145646475255
1678040553648223700,16.8102236328125,-0.22631460072696208,-0.047364685504138464,0.03326818664909806
1678040553668093700,16.83009375,-0.286345583319664,0.11960337123032659,0.07240974057731218
1678040553687964700,16.849964599609375,-0.05273381132185459,-0.017440343089960515,-0.021864210247085427
1678040553707835600,16.869835693359374,-0.025735914281010627,-0.20814594336245207,-0.35697613972947
1678040553727706600,16.88970654296875,-0.011651274827122688,-0.021294242039136588,-0.10920448935078457
1678040553747577600,16.90957763671875,0.042914428097009655,0.12729326814580708,0.15072214759346098
1678040553767447800,16.92944775390625,0.1660819580823183,0.10701876107584685,0.11104122152496129
1678040553787318800,16.94931884765625,0.2260258469134569,0.22227621205635367,0.07355043504503556
1678040553807189800,16.969189697265627,-0.1543786608070135,0.3129596686746925,0.1143782935258001
1678040553827060700,16.989060791015625,0.009303834918141364,0.29662677536997945,0.08965942906653508
1678040553846931700,17.008931640625,0.18733458946943282,0.14905311840269714,0.07900993342678994
1678040553866801700,17.0288017578125,0.03448269983828067,0.10001337582580745,0.10153766278363764
1678040553886672600,17.048672607421874,-0.06878770502209663,-0.02228321654386818,-0.08288838229533284
1678040553906543600,17.068543701171876,-0.2665162627339363,-0.01834923809580505,-0.24942296124966815
1678040553926414800,17.088414794921874,-0.20558862356245516,-0.02917268379665911,-0.149059657741338
1678040553946286000,17.1082861328125,0.1456687001287937,-0.053218635696731506,-0.027410660826507956
1678040553966156000,17.128156005859374,0.20800737514197826,-0.12124441643562167,-0.04941569061665795
1678040553986027000,17.148027099609376,-0.01695581097602844,-0.2193585710439831,-0.1298605065516196
1678040554005898000,17.16789794921875,-0.01326455524265766,-0.19963347801771014,-0.10700007464168593
1678040554025769000,17.18776904296875,-0.0979465794891119,-0.04240677083581686,-0.12971885132491587
1678040554045640000,17.207639892578126,-0.06226327168941497,0.1710675644751638,0.083860570062045
1678040554065510100,17.22751025390625,0.04654080190062523,0.1956820735108107,0.16148131415275857
1678040554085381000,17.247381103515625,0.1880330931276083,0.056939592448621984,0.019322699937573632
1678040554105252000,17.267252197265623,0.02848024455308914,0.029119053913280367,-0.00318473098333925
1678040554125123000,17.287123046875,-0.03925239845812321,0.015001754298806189,-0.01752639110533055
1678040554144993000,17.306992919921875,-0.11186989090144633,0.024104148360714315,0.07254894811860285
1678040554164864000,17.326864013671877,0.11090718334913253,0.044431627726927395,0.2053586141988635
1678040554184735000,17.34673486328125,0.37000177164971826,0.05077354409955442,0.028671817035856657
1678040554204606000,17.36660595703125,0.10106091211736201,-0.06306333602592348,-0.2158359133431688
1678040554224477000,17.386476806640626,0.1765916616588831,-0.08009403886906802,-0.10421891949055716
1678040554244347100,17.40634716796875,0.08639525790512562,-0.0684215751234442,0.056691385274636553
1678040554264218000,17.426218017578126,-0.061004796060919755,-0.05469071754328906,-0.11670284574953839
1678040554284089000,17.446089111328124,-0.009156535401940346,-0.014120660615339875,-0.1120088883801829
1678040554303960000,17.4659599609375,0.20656652868390082,-0.005475727997347712,0.005731801100668963
1678040554323831000,17.4858310546875,0.030762802532315253,0.026668665086477993,0.1799665083868429
1678040554343701000,17.505700927734374,-0.491145686852932,0.16841003570370375,0.22520431966381146
1678040554363572000,17.525572021484376,-0.22880758658647535,0.1375695648252964,0.09189568195231258
1678040554383443200,17.545443115234374,0.015521394258737563,-0.1975972594823688,-0.21061479942770672
1678040554403314200,17.565314208984375,0.13989888455569743,-0.03312449016235769,-0.140816629588278
1678040554423185200,17.58518505859375,0.05166004461050033,-0.0624213848605752,-0.29852197799943386
1678040554443056000,17.60505615234375,-0.09779986449480056,-0.11489347650632262,-0.25434933000225574
1678040554462925800,17.62492578125,0.15204583394527435,-0.060328138908371326,-0.0462747987750452
1678040554482796800,17.644796875,0.32592765212357044,-0.047530324394628405,0.009455582280596718
1678040554502667800,17.664667724609377,0.21675708330869672,-0.007577230321243405,0.015794911687204146
1678040554522539000,17.6845390625,0.2221732631385326,0.009981734179705382,-0.010463919072924181
1678040554542410000,17.704409912109377,0.5165776497513056,-0.038537162860855456,0.11889467497169971
1678040554562280000,17.724280029296875,0.44006314986944195,-0.034509514779970045,0.2861633951531723
1678040554582151000,17.74415087890625,0.062441550865769385,-0.04741911910511553,0.3680045699505135
1678040554602022000,17.76402197265625,-0.08426116848587989,-0.09803126209788024,0.383948756198585
1678040554621892900,17.783892822265624,-0.03334346667528152,-0.12120192900076508,0.4172831262519583
1678040554641763800,17.803763916015626,-0.22283494191765785,-0.02813669181242585,0.5607324332982302
1678040554661634000,17.823634033203124,-0.5100304200649262,-0.15789916308335958,0.9483028871253132
1678040554681505000,17.843505126953126,-0.7562854005366564,-0.5161029449116439,0.5194979211121797
1678040554701376000,17.8633759765625,-0.5531710581332445,-0.2778792221389711,1.2074084352113306
1678040554721247000,17.8832470703125,-0.21833763049840926,0.3556080662466585,2.42928174136579
1678040554741118000,17.903117919921876,0.5657651667684316,-0.1425686152216047,3.131255706000328
1678040554760988000,17.92298779296875,0.7312088269472122,-0.2980840980388224,3.8177430554285645
1678040554780859000,17.94285888671875,0.26029694982767104,-0.03939560632109642,3.8465538471102714
1678040554800730000,17.962730224609373,-0.7635989384204149,0.5409562311392278,6.288361892572045
1678040554820601000,17.98260107421875,-1.3247487203478812,0.6338355903666466,8.622777484807372
1678040554840472000,18.00247216796875,-3.221272077012062,0.7034617920394987,10.431896698784827
1678040554860342000,18.022342041015627,-2.136167979085445,-2.024652308449149,10.705876137006282
1678040554880213000,18.042212890625,-2.4752426975518462,-2.1447353164225818,9.961967987483739
1678040554900084000,18.062083984375,-2.341528054589033,0.4944979198902845,7.879297205308079
1678040554919955000,18.081954833984376,-2.2590596147388218,3.664944357289374,5.673140913239121
1678040554939825400,18.101825439453126,-0.16856208446025847,3.657218731473386,-0.19956508895661682
1678040554959695600,18.121695556640624,2.302457442438602,2.7386417050480842,-7.3409893697857855
1678040554979566600,18.141566650390626,2.206692298641801,2.807613826726377,-12.943483213871717
1678040554999437600,18.1614375,0.41388299895226954,4.9876615718096495,-10.635172369229792
1678040555019308500,18.18130859375,-0.831775818067789,5.295277322173118,-7.306660983726382
1678040555039179500,18.201179443359376,-0.9980962610810995,4.7703038922592995,-7.925762603884935
1678040555059049700,18.2210498046875,-0.11703940249383449,3.4327719704449176,-8.258466033753752
1678040555078920700,18.240920654296875,0.3419926517397165,1.6384302004911004,-6.239405261701345
1678040555098791700,18.260791748046874,0.5613830061614513,0.017774287752062082,-4.572727894760668
1678040555118662700,18.28066259765625,0.2303565695941448,-1.374251148533076,-4.364157917299867
1678040555138533600,18.30053369140625,1.1370096417307853,-2.6057915699601173,-4.266240563905239
1678040555158404600,18.320404541015623,2.039660492488742,-3.3680209735929965,-2.664789702373743
1678040555178274300,18.3402744140625,2.0944331161618233,-2.9649314635947346,-1.203762260728702
1678040555198145300,18.360145263671875,1.204163608071208,-2.1140594615213573,-0.45262803241014476
1678040555218016500,18.3800166015625,0.15615034665465355,-1.1639379806667565,0.06293832140676676
1678040555237887500,18.399887451171875,-0.001796235767006874,-0.3398113621778786,-0.7897909259058534
1678040555257758700,18.4197587890625,-0.4683545938521623,-0.09505568035319446,-0.6088146194219589
1678040555277628400,18.43962841796875,-0.2626256850361824,0.7442096166871488,0.6641395432155579
1678040555297499400,18.45949951171875,-0.4293815968573093,1.2375517906710505,1.4871743478797375
1678040555317370400,18.479370361328126,-0.5562818836301565,1.4261403257243335,1.4552810800127685
1678040555337241300,18.499241455078124,-0.7957581637471913,0.9402874845825135,-0.4455149855345487
1678040555357112300,18.5191123046875,-1.0660685580670832,0.5471712331965566,-0.1691751748573035
1678040555376982500,18.538982421875,-0.7348281864881515,0.422057391449064,0.8748818232141434
1678040555396853500,18.558853515625,-0.3635001346707344,0.3195980107106268,0.6468195751022547
1678040555416724500,18.578724365234375,-0.18925825100839136,-0.0515153754428029,-0.4198966332186013
1678040555436595500,18.598595458984374,-0.6429822619616985,-0.07187032733783126,-0.30064328100234267
1678040555456466400,18.618466552734375,-0.6393079573631286,-0.094227558965981,-0.13200002106465397
1678040555476336400,18.63833642578125,-0.39092356364727016,-0.09677212888225913,-0.37974348652847106
1678040555496207400,18.658207275390627,-0.14631751942634583,0.08784604123532772,-0.7735380025021732
1678040555516078600,18.67807861328125,-0.07700257565975188,0.24253259894773363,-1.396421040895581
1678040555535949600,18.697949462890627,-0.47219840979874134,0.28211042996793984,-1.6250325203880667
1678040555555820500,18.717820556640625,-0.8508487673282623,0.49385406902879475,-2.015222801324725
1678040555575691500,18.73769140625,-0.6475023697346448,0.252010767519474,-3.066113079482317
1678040555595561500,18.7575615234375,-0.32230069379806514,0.462558767054975,-4.434031079471111
1678040555615432400,18.777432373046874,-0.17510814510285852,0.6875292596966028,-5.163908950075506
1678040555635303400,18.797303466796876,0.04073708405792713,0.669214435327053,-4.856735390521585
1678040555655174400,18.81717431640625,0.8086065394043922,0.3073087302409112,-4.4512256676390765
1678040555675045400,18.83704541015625,0.7625789477229118,0.5187104239962995,-4.96136334747076
1678040555694915600,18.85691552734375,-0.29950843175351616,0.9270371039956807,-5.461761431315541
1678040555714786600,18.87678662109375,-1.2023667877823114,1.3485213717319071,-5.173650591889023
1678040555734657500,18.896657470703126,-0.9497931256830692,1.2396429177314043,-4.690708669757843
1678040555754528500,18.916528564453124,-0.3594172492712736,1.1093946357049047,-5.251261070314049
1678040555774399500,18.9363994140625,-0.17688099999427795,1.0514575566515325,-4.893848146602511
1678040555794269400,18.95626953125,-0.9959995810627936,0.6473283283419907,-3.7316152162879703
1678040555814140700,18.976140625,-0.902763663482666,-0.20209479009732603,-1.6602734912477433
1678040555834011600,18.99601171875,-0.08692074308395385,-1.146596385243535,-0.1835999329857528
1678040555853882600,19.015882568359373,0.8597878605872392,-2.2904971016623077,3.3108243376433846
1678040555873753600,19.035753662109375,3.4577234563499686,-2.8559277757793664,10.074864883345365
1678040555893624600,19.05562451171875,4.390529791396856,1.9328797414198517,14.804058474320172
1678040555913494500,19.07549462890625,-0.1430763455480337,5.284491139742732,15.945453199267387
1678040555933365500,19.095365478515625,-2.7334523197114464,5.368119271022081,12.637870620024204
1678040555953236500,19.115236572265626,-0.8127993149191141,3.5924452305287122,5.855930260494351
1678040555973107500,19.135107421875,1.6321084501236676,1.4875444963663815,1.7865651446029542
1678040555992978700,19.154978759765626,2.4969074168711898,0.4417928232062608,1.095497189386189
1678040556012848600,19.1748486328125,2.1985984240353105,-0.19899740860387682,0.2510262865267694
1678040556032719600,19.1947197265625,1.3203443479090928,-0.4495917334541678,-0.8243683913554996
1678040556052590600,19.214590576171876,0.17611469179689884,-0.9281740721363574,-1.5638435999318956
1678040556072461600,19.234461669921874,-0.19168927754759787,-0.903796805922687,-1.0886587947335093
1678040556092332500,19.25433251953125,-0.2026899795114994,-0.7364827487621456,-0.5070218858987092
1678040556112202500,19.274202392578125,-0.5317214428693056,-0.9077301998488605,-0.5977090688440948
1678040556132073500,19.294073486328124,-0.8925748624235391,-0.5502511520985514,-0.44125798567719754
1678040556151944400,19.3139443359375,0.5867424883455038,0.9104470575921237,-0.12196933317668736
1678040556171815400,19.3338154296875,0.02792787136733532,-0.7711976499211043,0.030361674385517835
1678040556191686400,19.353686279296873,-1.919374655419588,0.10580218836031853,-0.3843444044526666
1678040556211557400,19.373557373046875,-1.873290365114808,-0.0016894874569028614,-0.23701610054858027
1678040556231427300,19.39342724609375,-0.4022942679673433,0.1805314853258431,0.6738645992204546
1678040556251298300,19.41329833984375,0.3670937752485275,0.04722440025061369,0.8843836649224162
1678040556271169500,19.43316943359375,0.3689426179856062,0.00272891350723803,0.7589731783159077
1678040556291040500,19.45304052734375,0.033413024780154225,0.18441146856434643,0.6122848893484101
1678040556310911500,19.472911376953125,-0.41121231843829154,0.12147197811380028,0.027629217214323577
1678040556330782500,19.492782470703126,-0.20795009199678896,0.12822320593968034,-0.0013714344836771488
1678040556350652400,19.51265234375,-0.20883447361588478,0.06008980010785162,0.242456136178039
1678040556370523400,19.5325234375,-0.10595336033403872,0.2956421847794205,0.45483558892440046
1678040556390394400,19.552394287109376,0.052961190336942666,0.4957151867255568,0.4930998531280085
1678040556410265300,19.572265380859374,0.04228723610937595,0.4338736475795507,0.061960087491758166
1678040556430136300,19.59213623046875,-0.019849194329977036,0.23075799000188707,0.07669975678827613
1678040556450006500,19.612006591796874,0.14392857846319673,-0.06612279666177928,-0.16956833889335393
1678040556469877500,19.63187744140625,-0.08241700192391872,-0.14471687929667532,-0.04509823840949684
1678040556489748500,19.65174853515625,-0.02396247486770153,-0.1357110044118017,0.16780129268821328
1678040556509619500,19.671619384765624,0.2789379374116659,-0.18017361179888247,0.06711659347210079
1678040556529490400,19.691490478515625,0.13144728255271912,-0.21030089290663598,-0.037502011126838625
1678040556549360600,19.711360595703123,-0.08525193308889865,-0.0960009983792901,-0.31985735576655716
1678040556569231600,19.731231689453125,-0.2948714196026325,-0.13301044021621344,-0.30610414022412147
1678040556589102600,19.7511025390625,-0.22911153796911238,0.013176000176370143,0.02670318841058761
1678040556608973600,19.7709736328125,-0.2200216380625963,0.18219992999471724,0.16242727149967104
1678040556628844500,19.790844482421875,-0.01206686989068985,-0.009960618326440454,0.08531469612680376
1678040556648715500,19.810715576171877,0.10743220071494579,-0.08584931446015834,-0.2200532022446394
1678040556668585500,19.83058544921875,0.22248656687140464,-0.08484152565710246,-0.32340313861463216
1678040556688456400,19.85045654296875,0.18813187732696532,-0.05237184614166617,-0.07121149810291827
1678040556708327400,19.870327392578126,0.00032031799554824825,0.04592084337137639,0.28392372646760194
1678040556728198700,19.89019873046875,0.07147475214898585,-0.04121273874565959,0.025862974726781247
1678040556748069600,19.910069580078126,0.21401509112417696,-0.03906096753925085,-0.120935387019068
1678040556767940600,19.929940673828124,0.2735521527200937,-0.021007862845808266,-0.2411985738649964
1678040556787810600,19.949810546875,0.4440601105511188,0.022780863867700098,-0.10691796758249401
1678040556807681500,19.969681640625,0.2648907073587179,0.06511961096860468,0.16106423951815813
1678040556827552500,19.989552490234374,-0.13004326097369193,-0.011714183995500206,-0.12340236165449023
1678040556847423500,20.009423583984375,-0.575824203968048,0.05334777850173413,-1.5371302189208567
1678040556867294500,20.02929443359375,-1.1543255181908607,-0.3738474142272025,-3.3428666585922238
1678040556887164700,20.04916455078125,-0.9816396317988634,0.7184448416378348,-4.459630215629935
1678040556907035600,20.06903564453125,-0.40274844147562977,1.505235051357746,-4.942922266373038
1678040556926906600,20.08890673828125,-0.42660570240318774,1.9667079228721558,-5.843223923656344
1678040556946777600,20.108777587890625,-0.5333411530256271,2.1228142842546105,-7.465316591200232
1678040556966648600,20.128648681640627,-0.6693167266577482,2.713399711763859,-8.428772331532835
1678040556986519600,20.14851953125,-0.7323989135146141,3.618719781731069,-8.7001611687392
1678040557006389500,20.168389404296875,-1.0657190139770507,3.5337557256728407,-10.17610758177042
1678040557026260700,20.1882607421875,-0.7537778016299009,1.5923047013930975,-8.257689788684248
1678040557046131700,20.208131591796874,1.50726041970551,0.4620477487929165,-6.228860486811399
1678040557066002700,20.228002685546876,-1.0108417608857154,0.6886870514295995,-5.215785852307081
1678040557085873700,20.247873779296874,-3.5678730993300674,1.5939356635957955,-2.1922619144901634
1678040557105744600,20.26774462890625,-2.1858879955440758,1.3317290807545183,0.9776387255944311
1678040557125614600,20.287614501953126,0.17846622335910797,0.04163827068135142,3.1136525370314714
1678040557145485600,20.307485595703124,0.9910375747412442,-0.39352044827267524,5.307628269702196
1678040557165356500,20.3273564453125,-1.227809856596589,0.17829115905314682,7.605315428999066
1678040557185227500,20.3472275390625,-2.723421339562535,1.440801888283342,10.672518641805649
1678040557205098800,20.3670986328125,-2.997585486701131,1.8685637749843298,12.580218057000636
1678040557224968700,20.38696875,-2.363005142381787,0.5462383362606168,11.917030042356252
1678040557244839700,20.406839599609373,-1.5219406869649885,-0.5435267392143607,10.362049840098619
1678040557264710700,20.426710693359375,-0.1543172860085964,-0.45644320678412914,9.38208252542615
1678040557284581600,20.44658154296875,1.0296125123292208,0.27784035143330693,8.536153094321488
1678040557304452600,20.46645263671875,0.7594915031015872,0.8990450813509523,7.508374227160215
1678040557324323600,20.486323486328125,-0.5064063843488693,0.1911095779635012,4.746795590899884
1678040557344193800,20.50619384765625,-0.9171855720669031,-0.8324395426735282,1.3546110669091342
1678040557364064800,20.526064697265625,0.023680735316872596,-0.38765871663242574,-0.4370052236035466
1678040557383935700,20.545935791015626,0.6065992814600467,0.3118985422492027,-0.7571472780629992
1678040557403806700,20.565806640625,0.06704816787838935,0.04026552102342248,-1.6068132653474807
1678040557423677700,20.585677734375,-0.23364450522363184,-0.5015832019761205,-2.629059925083816
1678040557443548700,20.605548583984376,0.2957897034913301,-0.9027031654670834,-2.7138828191056845
1678040557463418600,20.625418701171874,0.5788911903232336,-0.6238325942032039,-2.476673899398744
1678040557483289600,20.64528955078125,0.700567020446062,-0.3840129074759781,-1.9152040917366742
1678040557503160800,20.665160888671874,0.7078624381512403,-0.214363758431375,-1.1385776216998695
1678040557523031800,20.68503173828125,-0.3062052990436554,-0.19099588845595716,-0.7797025164812803
1678040557542902800,20.70490283203125,-0.7929951287746428,0.08426175300776959,-0.3970455536589026
1678040557562773800,20.724773681640624,-0.5949550208956003,0.1250245560288429,-0.10759294423460959
1678040557582643700,20.744643798828125,-0.20492986739277838,-0.42554669486954805,-0.18602905982881784
1678040557602514700,20.7645146484375,0.06445873590707779,-0.40971448109596964,0.2273597258657217
1678040557622385700,20.7843857421875,0.007259177348017692,-0.15116159845665098,0.9060863781645894
1678040557642256600,20.804256591796875,-0.1085907231003046,0.17403335547819732,1.5488748711198568
1678040557662127600,20.824127685546873,-0.31822657622694966,0.19625263994038103,1.9506570979118345
1678040557681997800,20.843997802734375,-0.023725158980488777,-0.10812865854650736,2.61976485799402
1678040557701868800,20.863868896484377,-0.4180985708206892,-0.00439428943619132,3.7173844463616605
1678040557721739800,20.88373974609375,-0.9204442816019057,0.9071297497376799,5.230374349629879
1678040557741610800,20.90361083984375,-1.1969652209997177,1.2271975699171422,5.799878702926636
1678040557761481700,20.923481689453126,-1.2388327703922986,0.723000532180816,5.5163405782431365
1678040557781352700,20.943352783203125,-1.1650275294691324,0.08936579814851284,5.594165576201677
1678040557801222700,20.96322265625,-0.44946635350883,0.3904476166985929,5.504927788347006
1678040557821093600,20.98309375,-0.5401444032996893,1.3999188198834658,5.589205907967687
1678040557840964600,21.002964599609374,-1.2940285879135132,3.124728057797253,6.697987234079838
1678040557860835600,21.022835693359376,-1.0884084001690149,2.496496205721795,6.859314691111445
1678040557880706600,21.04270654296875,-0.43419455009698865,0.6835099410526454,5.77998859206438
1678040557900577800,21.062577880859376,0.5964864682465791,-0.5399273995481432,3.76373060247302
1678040557920447500,21.082447509765625,2.0398066229611636,1.0528589478820563,2.6876746111378074
1678040557940318500,21.102318359375,2.586956521108746,3.584323883393407,2.1751849613524974
1678040557960190000,21.12218994140625,-1.087500053152442,1.336511931116879,-1.1354650426372885
1678040557980061000,21.14206103515625,-3.8750656558454035,-1.8559765344813466,-7.903108873528241
1678040557999932200,21.16193212890625,-1.9477076004564762,-2.427374446439743,-13.252141166764497
1678040558019803100,21.18180322265625,0.06619476591944694,-2.1063108932211994,-13.811691112279892
1678040558039673000,21.201673095703125,0.8994517624557018,-0.2557669051826,-10.479809958082438
1678040558059544000,21.2215439453125,0.4683388117611408,0.4395394182562828,-7.293612117061018
1678040558079415000,21.2414150390625,1.899693218871951,4.4013580594033,-6.709462567818164
1678040558099286000,21.2612861328125,-3.2239415884822606,-1.9405984991036354,-7.255498367244005
1678040558119157000,21.281156982421876,-3.31568171454668,-0.5155665730126202,-6.396641650027036
1678040558139028000,21.301028076171875,-0.6703641898840665,-0.9404235320523381,-2.028451846862584
1678040558158898200,21.320898193359376,0.3308908274888992,-0.02825491136461496,-0.5827903897188603
