time,seconds_elapsed,z,y,x
1678040536877350100,0.03935009765625,-0.01907523348927498,-0.014984027482569218,-0.05500040575861931
1678040536897221000,0.05922119140625,-0.007317682262510061,0.004763574339449406,-0.06587492674589157
1678040536917091000,0.079091064453125,-0.008146438747644424,-0.000017527258023619652,-0.07776311039924622
1678040536936962800,0.098962890625,0.004643182270228863,0.010714415460824966,-0.03866133838891983
1678040536956832800,0.118832763671875,-0.00042181694880127907,0.00030574388802051544,0.02894114889204502
1678040536976704000,0.1387041015625,0.0007443595677614212,-0.024027325212955475,0.05565647780895233
1678040536996575000,0.158574951171875,0.0013725841417908669,0.010378347709774971,0.046737685799598694
1678040537016445000,0.17844482421875,0.0013896971940994263,0.014087625779211521,0.02128399908542633
1678040537036316000,0.19831591796875,-0.0024335565976798534,-0.000343710882589221,-0.03768464922904968
1678040537056185900,0.218185791015625,-0.004522750619798899,-0.050711337476968765,-0.05624058097600937
1678040537076056800,0.238056884765625,0.001318255439400673,-0.053799040615558624,-0.031239405274391174
1678040537095928000,0.257927978515625,0.010918894782662392,-0.004096669144928455,-0.013890682719647884
1678040537115797800,0.2777978515625,0.021011700853705406,0.030785301700234413,0.008089378476142883
1678040537135668700,0.297668701171875,0.009808365255594254,0.015695663169026375,0.015526660718023777
1678040537155540000,0.3175400390625,-0.006764215882867575,-0.017552733421325684,0.011049922555685043
1678040537175410000,0.337409912109375,-0.011317236348986626,-0.03297068923711777,0.007738971151411533
1678040537195281000,0.357281005859375,-0.010711032897233963,-0.007082338910549879,0.022488364949822426
1678040537215150800,0.37715087890625,-0.006157753057777882,0.0022950582206249237,0.011115910485386848
1678040537235021800,0.397021728515625,0.004944904707372189,0.012297839857637882,-0.007326954044401646
1678040537254892800,0.416892822265625,0.0009204288944602013,-0.001700591528788209,0.003042807336896658
1678040537274762800,0.4367626953125,-0.0028564361855387688,-0.018314698711037636,-0.015737833455204964
1678040537294634000,0.456634033203125,-0.0042690192349255085,0.016262073069810867,-0.013795396313071251
1678040537314504000,0.47650390625,0.001175813376903534,0.04315707087516785,0.010486507788300514
1678040537334375000,0.496375,-0.0048681627959012985,-0.023645367473363876,0.0056968205608427525
1678040537354246000,0.516245849609375,0.008738962933421135,-0.02010844647884369,0.010447663255035877
1678040537374115800,0.53611572265625,0.015516113489866257,0.02461196854710579,0.009494544006884098
1678040537393986800,0.55598681640625,0.01830274984240532,0.06329204887151718,0.013273358345031738
1678040537413858000,0.575858154296875,0.002425394020974636,0.014255828224122524,0.03950344771146774
1678040537433728000,0.59572802734375,-0.012527456507086754,-0.01146072056144476,0.08268927037715912
1678040537453599000,0.615598876953125,-0.011681519448757172,-0.004520666319876909,0.06654373556375504
1678040537473468700,0.63546875,-0.015410751104354858,0.015102054923772812,-0.0033017254900187254
1678040537493340000,0.65533984375,0.006772912107408047,-0.012906758114695549,-0.05015793815255165
1678040537513211000,0.6752109375,0.017362544313073158,-0.039448853582143784,-0.04165655001997948
1678040537533080800,0.695080810546875,0.010672559961676598,-0.01065738219767809,-0.009482018649578094
1678040537552951800,0.714951904296875,0.006870687007904053,0.01628202572464943,0.03951419144868851
1678040537572822800,0.73482275390625,-0.0037141218781471252,0.01012532040476799,0.06564691662788391
1678040537592692700,0.754692626953125,-0.006058960221707821,0.02237027697265148,0.04032139480113983
1678040537612564000,0.77456396484375,0.0192844420671463,0.014908626675605774,0.027937928214669228
1678040537632434000,0.794433837890625,0.013004937209188938,-0.04071788489818573,0.04193253442645073
1678040537652305000,0.814304931640625,-0.0038228346966207027,-0.056605443358421326,0.01021224819123745
1678040537672175900,0.83417578125,0.00808736216276884,0.023088037967681885,-0.007811693008989096
1678040537692045800,0.8540458984375,-0.006566477939486504,0.025450607761740685,0.00017648492939770222
1678040537711916800,0.873916748046875,0.026241406798362732,0.11452514678239822,0.07444354146718979
1678040537731787000,0.893787109375,0.06456421315670013,0.17597800493240356,0.13252006471157074
1678040537751658000,0.913657958984375,0.10647857189178467,0.26640719175338745,0.19727931916713715
1678040537771529000,0.933529052734375,0.14350193738937378,0.3777501881122589,0.2975614070892334
1678040537791398700,0.953398681640625,0.189345583319664,0.16779960691928864,0.25717297196388245
1678040537811270000,0.973269775390625,0.16041427850723267,0.059354692697525024,0.08594458550214767
1678040537831140900,0.993140869140625,0.050827961415052414,0.011857263743877411,-0.1607528179883957
1678040537851010800,1.0130107421875,-0.32967546582221985,0.03755401447415352,-0.3504837155342102
1678040537870881800,1.0328818359375,-0.5302676558494568,0.0414680652320385,-0.3743163049221039
1678040537890751700,1.052751708984375,-0.4579492211341858,0.1258639097213745,-0.25218135118484497
1678040537910622700,1.072622802734375,-0.2043999433517456,0.0858243778347969,-0.13605043292045593
1678040537930493200,1.0924931640625,0.041840605437755585,0.03366651013493538,-0.11216149479150772
1678040537950363100,1.112363037109375,0.17008201777935028,0.16498468816280365,-0.16867758333683014
1678040537970234000,1.132234130859375,0.3032805919647217,0.3493642210960388,-0.22697997093200684
1678040537990105000,1.15210498046875,0.39198002219200134,0.3783295452594757,-0.24969971179962158
1678040538009975300,1.171975341796875,0.43134424090385437,0.24299784004688263,-0.10486394912004471
1678040538029846300,1.19184619140625,0.38896647095680237,0.07496729493141174,0.13468022644519806
1678040538049716200,1.21171630859375,0.30475687980651855,0.10329687595367432,0.2412114143371582
1678040538069587200,1.231587158203125,0.23144280910491943,0.153413787484169,0.3018057346343994
1678040538089458200,1.251458251953125,0.17182153463363647,0.133463054895401,0.4003896117210388
1678040538109328100,1.271328125,0.11906243860721588,0.04387884959578514,0.5490227937698364
1678040538129199000,1.29119921875,0.18608784675598145,0.0887475460767746,0.5137196183204651
1678040538149069000,1.311069091796875,0.12641964852809906,0.1382899433374405,0.3513777256011963
1678040538168940000,1.33093994140625,0.10855712741613388,0.18565738201141357,0.20113098621368408
1678040538188811000,1.35081103515625,0.12543921172618866,0.19683797657489777,0.10646021366119385
1678040538208681200,1.37068115234375,0.1542542427778244,0.1381223201751709,0.07128536701202393
1678040538228552200,1.39055224609375,0.07070285081863403,0.13710926473140717,0.07204752415418625
1678040538248423200,1.410423095703125,0.031844280660152435,0.07393975555896759,0.08621060103178024
1678040538268293000,1.430293212890625,0.03640526533126831,0.1339588165283203,0.07479753345251083
1678040538288164000,1.4501640625,0.04189129173755646,0.15181668102741241,0.02741469070315361
1678040538308035000,1.47003515625,0.04956122487783432,0.10226859897375107,0.08931051939725876
1678040538327905300,1.4899052734375,0.0393560491502285,0.02312311716377735,0.10259401053190231
1678040538347776300,1.5097763671875,0.025636490434408188,0.00295346905477345,0.0023519573733210564
1678040538367646200,1.529646240234375,0.02607041224837303,0.0320361964404583,-0.05876445025205612
1678040538387517200,1.54951708984375,0.0531301274895668,0.0618913508951664,-0.0029341885820031166
1678040538407388200,1.56938818359375,0.0667305588722229,0.04703088104724884,0.07696489989757538
1678040538427258000,1.589258056640625,0.08703403174877167,0.10967778414487839,0.09049376100301743
1678040538447129000,1.609129150390625,0.09117099642753601,0.11075884848833084,0.05694336071610451
1678040538466999000,1.6289990234375,0.06827990710735321,0.09480814635753632,0.029834557324647903
1678040538486870000,1.6488701171875,0.05284382775425911,0.04061872512102127,0.046863362193107605
1678040538506741000,1.668740966796875,0.034559719264507294,0.011334281414747238,0.05600859969854355
1678040538526611200,1.688611083984375,0.043204765766859055,-0.00680730864405632,0.04022449627518654
1678040538546482200,1.708482177734375,0.032995738089084625,0.05164782330393791,0.005744042806327343
1678040538566353200,1.728353271484375,-0.023087449371814728,-0.09303086251020432,-0.029960783198475838
1678040538586223000,1.74822314453125,-0.04947230964899063,-0.20264892280101776,-0.007764583919197321
1678040538606094000,1.768093994140625,-0.0941847711801529,-0.17671997845172882,0.02366802468895912
1678040538625964300,1.78796435546875,-0.13473784923553467,-0.09569893032312393,0.04607558622956276
1678040538645835300,1.807835205078125,-0.1522105187177658,-0.1999751478433609,0.10392168909311295
1678040538665706200,1.827706298828125,-0.20117835700511932,-0.41870811581611633,0.09345486015081406
1678040538685576200,1.847576171875,-0.15158315002918243,-0.6279492378234863,0.03440801054239273
1678040538705447200,1.867447265625,-0.09625943005084991,-0.758018434047699,0.04513479396700859
1678040538725318100,1.887318115234375,-0.07957755029201508,-0.7528356313705444,0.024141941219568253
1678040538745188400,1.907188232421875,-0.10934578627347946,-0.701502799987793,-0.06401953846216202
1678040538765059300,1.927059326171875,-0.1410234272480011,-0.6641281843185425,-0.07737007737159729
1678040538784929000,1.946928955078125,-0.1948981136083603,-0.5404749512672424,-0.07280036062002182
1678040538804800000,1.966800048828125,-0.23654398322105408,-0.3528444766998291,-0.13738380372524261
1678040538824671000,1.9866708984375,-0.18545907735824585,-0.4181402623653412,-0.2656707465648651
1678040538844541200,2.006541259765625,-0.1470693051815033,-0.33311083912849426,-0.24945898354053497
1678040538864412200,2.026412109375,-0.1440606564283371,-0.22495603561401367,-0.0842459499835968
1678040538884283100,2.046283203125,-0.1626831442117691,-0.024286966770887375,-0.018353329971432686
1678040538904153000,2.066153076171875,-0.19130653142929077,0.29245275259017944,-0.2866459786891937
1678040538924024600,2.086024658203125,-0.018493283540010452,0.43929195404052734,-0.4879152178764343
1678040538943894500,2.10589453125,0.1201247051358223,0.21517059206962585,-0.10729634016752243
1678040538963765500,2.125765625,0.018727470189332962,-0.061754755675792694,0.1453835517168045
1678040538983636700,2.14563671875,-0.017753463238477707,-0.08681082725524902,0.09978954493999481
1678040539003506700,2.165506591796875,-0.03711559623479843,0.11007761210203171,-0.04142528772354126
1678040539023377700,2.185377685546875,0.0037161046639084816,0.03835427761077881,0.09740465134382248
1678040539043248600,2.20524853515625,-0.09339705854654312,-0.07671582698822021,0.2562702000141144
1678040539063118600,2.22511865234375,-0.14836037158966064,-0.08352179080247879,0.1989840865135193
1678040539082989600,2.244989501953125,-0.10552451759576797,0.005231084302067757,0.040395237505435944
1678040539102860800,2.26486083984375,-0.08640378713607788,0.052384912967681885,-0.043469831347465515
1678040539122730800,2.284730712890625,-0.04657632112503052,0.05813970789313316,-0.005150984041392803
1678040539142601700,2.304601806640625,-0.023187533020973206,0.03914058580994606,-0.017816629260778427
1678040539162471400,2.324471435546875,0.03532944992184639,0.08775849640369415,-0.042629219591617584
1678040539182342700,2.3443427734375,0.05724625661969185,0.13212136924266815,-0.05420101061463356
1678040539202213600,2.364213623046875,0.021081551909446716,0.06251634657382965,0.004875550977885723
1678040539222083600,2.38408349609375,-0.004009125288575888,-0.01211792416870594,0.024585578590631485
1678040539241954600,2.40395458984375,0.002123800106346607,-0.003780924715101719,-0.03035704232752323
1678040539261825500,2.423825439453125,0.010813441127538681,0.004539946094155312,-0.06825345009565353
1678040539281695500,2.443695556640625,-0.001662068534642458,0.007761064916849136,-0.10391929745674133
1678040539301566700,2.463566650390625,0.020532850176095963,-0.00556001253426075,-0.12172837555408478
1678040539321437700,2.483437744140625,0.023552831262350082,-0.0015645837411284447,-0.08115758746862411
1678040539341307600,2.5033076171875,-0.01599002256989479,0.011419307440519333,-0.0787498876452446
1678040539361178600,2.5231787109375,-0.028029851615428925,0.013511154800653458,-0.09456063061952591
1678040539381048600,2.543048583984375,-0.014462260529398918,0.0012881681323051453,-0.09687183797359467
1678040539400919600,2.56291943359375,0.004065549932420254,-0.005923964083194733,-0.06506597995758057
1678040539420790800,2.582790771484375,0.020783374086022377,0.02482627145946026,0.004851562902331352
1678040539440660700,2.60266064453125,0.009869711473584175,0.016025301069021225,0.05587083473801613
1678040539460531700,2.62253173828125,0.005855781026184559,-0.01580941677093506,0.07409314811229706
1678040539480402700,2.642402587890625,-0.02583514153957367,-0.01819084770977497,0.041692283004522324
1678040539500272600,2.662272705078125,-0.022400010377168655,0.023009467869997025,-0.058460261672735214
1678040539520143600,2.6821435546875,-0.0005844775587320328,0.0601089708507061,-0.09767171740531921
1678040539540013600,2.702013671875,0.026717694476246834,0.027532309293746948,-0.02740783989429474
1678040539559884500,2.721884521484375,0.00632892083376646,-0.009698825888335705,0.09286971390247345
1678040539579755500,2.741755615234375,-0.003698266576975584,0.034919384866952896,0.12920759618282318
1678040539599625500,2.76162548828125,-0.01660913974046707,0.07730540633201599,0.06683182716369629
1678040539619496700,2.78149658203125,-0.024931810796260834,0.0626053735613823,-0.026843205094337463
1678040539639367700,2.80136767578125,-0.017457250505685806,0.08705154806375504,-0.10796843469142914
1678040539659237600,2.821237548828125,-0.004749694839119911,0.07761961966753006,-0.1227634847164154
1678040539679108600,2.841108642578125,0.003765372559428215,0.01777603290975094,-0.018044715747237206
1678040539698979600,2.8609794921875,-0.0015640812925994396,-0.0038925884291529655,0.06336276978254318
1678040539718849500,2.880849609375,-0.010263534262776375,0.030168194323778152,0.03526905179023743
1678040539738720800,2.900720703125,0.005862097255885601,0.04125944897532463,-0.0033918675035238266
1678040539758590700,2.9205908203125,0.004819529131054878,0.018222127109766006,-0.03507901728153229
1678040539778461700,2.940461669921875,-0.0038680280558764935,0.0064154500141739845,-0.05346488580107689
1678040539798332700,2.960332763671875,0.007618472911417484,0.018363799899816513,-0.04277825355529785
1678040539818202600,2.98020263671875,-0.0023842244409024715,-0.009255792945623398,0.008560052141547203
1678040539838073900,3.000073974609375,-0.01210328284651041,-0.003765809116885066,0.0629645586013794
1678040539857944800,3.01994482421875,-0.012635065242648125,0.03580033779144287,0.05949539691209793
1678040539877814500,3.039814453125,0.0017671529203653336,0.04943080246448517,0.016773046925663948
1678040539897685500,3.059685546875,0.012476331554353237,0.015535430982708931,-0.011153051629662514
1678040539917556500,3.079556396484375,0.026827150955796242,-0.019051438197493553,-0.010978000238537788
1678040539937426200,3.09942626953125,-0.0005729966796934605,-0.02468419261276722,-0.039611902087926865
1678040539957297200,3.119297119140625,-0.029376059770584106,-0.0033162138424813747,-0.04831840097904205
1678040539977167000,3.1391669921875,-0.024938300251960754,0.01926797442138195,-0.00787721574306488
1678040539997038000,3.1590380859375,-0.02342968061566353,0.027075909078121185,0.02353452891111374
1678040540016909000,3.178908935546875,0.001841011457145214,0.06735477596521378,0.01051452849060297
1678040540036779300,3.198779296875,0.004173437133431435,0.1178286224603653,-0.08340906351804733
1678040540056650200,3.218650146484375,-0.033386390656232834,0.1094779372215271,-0.23958218097686768
1678040540076521200,3.238521240234375,-0.032293617725372314,0.13520872592926025,-0.2884249687194824
1678040540096391200,3.25839111328125,-0.037506259977817535,0.04342632740736008,-0.14204943180084229
1678040540116262100,3.27826220703125,-0.061833810061216354,-0.018814709037542343,-0.00019486993551254272
1678040540136133000,3.298133056640625,-0.07428573817014694,-0.0007490918505936861,0.021026886999607086
1678040540156003300,3.31800341796875,-0.04879290983080864,0.12201614677906036,-0.007709786295890808
1678040540175874300,3.337874267578125,-0.03138446435332298,0.09946739673614502,-0.009452072903513908
1678040540195744300,3.357744140625,-0.03636480122804642,-0.03667205572128296,0.016649072989821434
1678040540215615200,3.377615234375,-0.04355714097619057,-0.05141992121934891,-0.00991332158446312
1678040540235486200,3.397486328125,-0.0147190997377038,-0.0016470365226268768,-0.036665573716163635
1678040540255356200,3.417356201171875,0.022841930389404297,0.021006206050515175,-0.015047851949930191
1678040540275227100,3.43722705078125,0.04359307885169983,-0.03096412867307663,0.0438774898648262
1678040540295098000,3.45709814453125,0.022804589942097664,-0.015536826103925705,0.04034918546676636
1678040540314968000,3.476968017578125,-0.011115681380033493,-0.02136325091123581,-0.05173777788877487
1678040540334839000,3.496839111328125,-0.010615937411785126,-0.033065129071474075,-0.10158920288085938
1678040540354710000,3.5167099609375,-0.0169285349547863,-0.0721832737326622,-0.06309618800878525
1678040540374580200,3.536580322265625,0.0016460930928587914,-0.06258147209882736,0.039906177669763565
1678040540394451200,3.556451171875,-0.008687393739819527,-0.0889117419719696,0.07332919538021088
1678040540414322200,3.576322265625,-0.02701423317193985,-0.02688860148191452,-0.022172264754772186
1678040540434192100,3.596192138671875,-0.024275315925478935,-0.023453695699572563,-0.1333627849817276
1678040540454063000,3.61606298828125,-0.0007662917487323284,-0.1111055389046669,-0.11047954112291336
1678040540473933300,3.635933349609375,-0.024317676201462746,-0.18727558851242065,-0.05008134990930557
1678040540493804300,3.65580419921875,-0.01623651385307312,-0.15577009320259094,0.002133395755663514
1678040540513675300,3.67567529296875,0.02300330251455307,-0.05604216828942299,0.045126669108867645
1678040540533545200,3.695545166015625,0.04687198996543884,0.02586205303668976,-0.005309028085321188
1678040540553416200,3.715416259765625,0.04425569623708725,0.03677035868167877,-0.039307739585638046
1678040540573287200,3.735287109375,0.02486996352672577,0.010914962738752365,-0.01693093404173851
1678040540593157000,3.7551572265625,0.0030197640880942345,-0.05337509512901306,0.018670763820409775
1678040540613028000,3.775028076171875,-0.01621142402291298,-0.08764329552650452,0.04349512234330177
1678040540632899300,3.7948994140625,-0.007786518894135952,-0.009682824835181236,0.06949153542518616
1678040540652769000,3.81476904296875,0.005361138842999935,0.09976571053266525,0.09363014996051788
1678040540672640000,3.834639892578125,0.002787752076983452,0.11299168318510056,0.03509699925780296
1678040540692511000,3.854510986328125,0.008416634984314442,0.07643917948007584,-0.04706983640789986
1678040540712381200,3.874381103515625,0.001042650081217289,0.01979970932006836,-0.05693943798542023
1678040540732252200,3.894252197265625,-0.002904648892581463,-0.005671022459864616,-0.027096284553408623
1678040540752123100,3.914123046875,0.012120782397687435,0.047215137630701065,-0.020085696130990982
1678040540771993000,3.9339931640625,0.01355522871017456,0.03264181315898895,0.003910192288458347
1678040540791864000,3.953864013671875,0.004347325302660465,-0.004365923814475536,0.04707317426800728
1678040540811734300,3.973734375,-0.023800089955329895,-0.042236849665641785,0.06113680452108383
1678040540831605200,3.993605224609375,-0.008676902391016483,-0.048627134412527084,0.0656910315155983
1678040540851476200,4.013476318359375,0.0051490673795342445,-0.13716156780719757,0.04244618117809296
1678040540871346200,4.03334619140625,0.008776550181210041,-0.1954973042011261,0.038835398852825165
1678040540891217200,4.053217041015625,0.008495202288031578,-0.1557912975549698,0.1015646830201149
1678040540911088000,4.073088134765625,-0.022080430760979652,-0.002300148829817772,0.15357476472854614
1678040540930958300,4.092958251953125,-0.00502401776611805,-0.05651520937681198,0.18155339360237122
1678040540950829300,4.112829345703125,0.019772261381149292,-0.07010573148727417,0.15585163235664368
1678040540970700300,4.1327001953125,0.05095052719116211,0.1320039927959442,-0.0329938642680645
1678040540990570000,4.152570068359375,0.10342729091644287,0.28489217162132263,-0.36774569749832153
1678040541010441000,4.17244091796875,0.12826019525527954,0.19129057228565216,-0.651246964931488
1678040541030312000,4.19231201171875,0.1923939436674118,-0.14769840240478516,-0.6885128021240234
1678040541050182100,4.21218212890625,0.3539288341999054,-0.5354074239730835,-0.6699811220169067
1678040541070053000,4.23205322265625,0.5293891429901123,-0.5958495140075684,-0.8384494781494141
1678040541089924000,4.251924072265625,0.5885722041130066,-0.16425499320030212,-0.9219444394111633
1678040541109794000,4.2717939453125,0.46917232871055603,0.22454947233200073,-0.6580179333686829
1678040541129665000,4.2916650390625,0.3513552248477936,0.15842223167419434,-0.12666071951389313
1678040541149535200,4.31153515625,0.26064062118530273,-0.0725928321480751,0.21754403412342072
1678040541169406200,4.33140625,0.14637278020381927,-0.0171799473464489,0.15279489755630493
1678040541189277200,4.351277099609375,0.03719823807477951,-0.21598905324935913,-0.20146134495735168
1678040541209147100,4.371147216796875,0.09821810573339462,0.11506705731153488,-0.4176994860172272
1678040541229018000,4.39101806640625,0.09090004861354828,0.5045568943023682,-0.17987965047359467
1678040541248889000,4.41088916015625,0.05947957932949066,0.4163053035736084,0.23187623918056488
1678040541268759300,4.43075927734375,0.09634581208229065,0.16457396745681763,0.24290674924850464
1678040541288630300,4.45063037109375,-0.010939603671431541,0.5562906265258789,-0.0075715770944952965
1678040541308501200,4.470501220703125,-0.1822618693113327,0.754042387008667,-0.046476274728775024
1678040541328371000,4.490370849609375,-0.4067545235157013,0.4894680082798004,0.2608592212200165
1678040541348242200,4.5102421875,-0.6043140292167664,0.15418675541877747,0.3543878495693207
1678040541368113200,4.530113037109375,-0.8415305614471436,0.22329311072826385,-0.057914942502975464
1678040541387983000,4.549983154296875,-0.9202470183372498,-0.1986696869134903,-0.33842456340789795
1678040541407854000,4.56985400390625,-0.7016712427139282,-0.5255087018013,-0.07200098037719727
1678040541427725000,4.58972509765625,-0.3947146534919739,-0.572493851184845,0.20588651299476624
1678040541447595000,4.609594970703125,-0.1463916152715683,-0.4123336970806122,0.18142355978488922
1678040541467466200,4.62946630859375,0.04683597758412361,0.07626457512378693,0.26493000984191895
1678040541487337200,4.649337158203125,-0.11685337871313095,0.292849600315094,0.6701534390449524
1678040541507207200,4.669207275390625,-0.3579977750778198,-0.08019771426916122,0.9516699910163879
1678040541527078100,4.689078125,-0.44623038172721863,-0.3633825480937958,1.006481647491455
1678040541546949000,4.70894921875,-0.23887138068675995,-0.3645147681236267,0.7843443751335144
1678040541566819000,4.728819091796875,0.09306781738996506,-0.13697449862957,0.4975014328956604
1678040541586690300,4.748690185546875,0.20534127950668335,0.0818842276930809,0.2917609214782715
1678040541606560300,4.768560302734375,0.3044760227203369,0.2118683010339737,0.047722626477479935
1678040541626431200,4.78843115234375,0.2978989779949188,0.16042150557041168,-0.10315404832363129
1678040541646302200,4.80830224609375,0.31752389669418335,-0.12203672528266907,-0.01776365004479885
1678040541666172200,4.828172119140625,0.40473687648773193,-0.4866124391555786,0.2504972219467163
1678040541686043100,4.848043212890625,0.25583162903785706,-0.5093433856964111,0.41073843836784363
1678040541705914400,4.867914306640625,-0.028160780668258667,-0.17098738253116608,0.5580288767814636
1678040541725784000,4.8877841796875,0.10405386239290237,0.09595843404531479,0.5163763761520386
1678040541745655000,4.907655029296875,0.2818185091018677,0.13134004175662994,0.43556931614875793
1678040541765526000,4.927526123046875,0.4475616216659546,0.22862768173217773,0.19961509108543396
1678040541785396200,4.947396240234375,0.39214298129081726,0.4193596839904785,-0.01684039644896984
1678040541805267200,4.96726708984375,0.08566895872354507,0.3868059813976288,-0.08713005483150482
1678040541825138200,4.98713818359375,-0.13334473967552185,0.09883494675159454,0.07256381958723068
1678040541845008100,5.007008056640625,-0.16744285821914673,-0.011339611373841763,0.19688592851161957
1678040541864879000,5.026879150390625,-0.10296139866113663,0.04652002826333046,0.13898436725139618
1678040541884750000,5.04675,0.04819990321993828,0.17960228025913239,-0.01478511467576027
1678040541904620300,5.066620361328125,0.09167592227458954,0.27291133999824524,-0.07445494830608368
1678040541924491300,5.0864912109375,0.09481579810380936,0.21225261688232422,-0.015592658892273903
1678040541944362500,5.106362548828125,0.04680939018726349,0.18921519815921783,-0.1130896583199501
1678040541964232400,5.126232421875,-0.02710634097456932,0.20250944793224335,-0.168818399310112
1678040541984103400,5.146103515625,-0.08329488337039948,-0.020591581240296364,-0.09290450066328049
1678040542003974400,5.165974365234375,-0.17065390944480896,-0.22751997411251068,-0.0894971415400505
1678040542023844600,5.1858447265625,-0.26724687218666077,-0.3299739360809326,-0.2330215871334076
1678040542043715600,5.205715576171875,-0.2471700757741928,-0.27372485399246216,-0.15608538687229156
1678040542063586600,5.225586669921875,-0.11955129355192184,-0.17348557710647583,-0.09219825267791748
1678040542083456500,5.24545654296875,-0.05801156163215637,-0.15025314688682556,-0.10378909856081009
1678040542103327500,5.265327392578125,-0.0699138417840004,-0.3519027531147003,-0.10337242484092712
1678040542123198500,5.285198486328125,-0.13859163224697113,-0.5466212630271912,-0.09936638921499252
1678040542143068700,5.305068603515625,-0.19850283861160278,-0.6610274314880371,-0.19822070002555847
1678040542162939600,5.324939697265625,-0.23166383802890778,-0.7387499809265137,-0.22144615650177002
1678040542182810600,5.344810546875,-0.2769002914428711,-1.1724326610565186,-0.2533210515975952
1678040542202680600,5.3646806640625,-0.2833886742591858,-1.6107292175292969,-0.2004033476114273
1678040542222551600,5.384551513671875,-0.1227952092885971,-1.8044040203094482,-0.041398871690034866
1678040542242422500,5.404422607421875,0.22986924648284912,-2.201298713684082,0.1256096363067627
1678040542262292500,5.42429248046875,0.601801335811615,-2.587872266769409,0.39638999104499817
1678040542282163500,5.44416357421875,0.8866057395935059,-3.138062000274658,0.554999053478241
1678040542302034700,5.46403466796875,0.7697527408599854,-2.8789119720458984,0.30799856781959534
1678040542321904400,5.483904296875,0.6358974575996399,-2.2649850845336914,-0.27884384989738464
1678040542341775400,5.503775390625,0.7148817777633667,-2.495985746383667,-0.39407721161842346
1678040542361646300,5.523646240234375,0.6253925561904907,-3.2422759532928467,-0.06545259803533554
1678040542381516500,5.5435166015625,0.6263256669044495,-4.054698944091797,0.3369067311286926
1678040542401387500,5.563387451171875,0.3268575072288513,-3.3323352336883545,0.012789640575647354
1678040542421258500,5.583258544921875,-0.07265415042638779,-3.0866847038269043,-0.5756420493125916
1678040542441128400,5.60312841796875,-0.29154857993125916,-3.3258066177368164,-0.8270314335823059
1678040542460999400,5.62299951171875,-0.19277696311473846,-3.7170705795288086,-0.5390669703483582
1678040542480870400,5.642870361328125,-0.08815201371908188,-3.5604236125946045,-0.245757594704628
1678040542500740600,5.66274072265625,-0.401173859834671,-3.278759241104126,-0.18831026554107666
1678040542520611600,5.682611572265625,-0.30491527915000916,-2.9284660816192627,-0.4061221480369568
1678040542540482600,5.702482666015625,0.48126739263534546,-2.488074779510498,-0.6422086358070374
1678040542560352500,5.7223525390625,0.9066373705863953,-1.9063860177993774,-0.3535277545452118
1678040542580223500,5.742223388671875,0.6800417304039001,-2.0070114135742188,-0.2785254418849945
1678040542600094500,5.762094482421875,0.6236921548843384,-2.2832040786743164,-0.42608508467674255
1678040542619964700,5.781964599609375,0.4753552973270416,-2.3053667545318604,-0.4339764714241028
1678040542639835600,5.801835693359375,0.16406691074371338,-2.5214810371398926,-0.3487260639667511
1678040542659706600,5.82170654296875,-0.24783052504062653,-2.954610824584961,-0.3000735640525818
1678040542679576300,5.841576416015625,-0.5607717037200928,-2.8118479251861572,-0.34926697611808777
1678040542699447300,5.861447265625,-0.7733798027038574,-2.5098297595977783,-0.4272914230823517
1678040542719318300,5.881318359375,-0.7440985441207886,-2.1050026416778564,-0.37637364864349365
1678040542739188500,5.9011884765625,-0.5070306062698364,-1.7147419452667236,-0.31020599603652954
1678040542759059500,5.9210595703125,-0.42471539974212646,-1.2778189182281494,-0.26389217376708984
1678040542778930400,5.940930419921875,-0.4744452238082886,-1.043710470199585,-0.003285686718299985
1678040542798800400,5.96080029296875,-0.39195945858955383,-0.982650101184845,0.17000485956668854
1678040542818671400,5.98067138671875,-0.2938607931137085,-0.7291330099105835,0.10989825427532196
1678040542838542300,6.000542236328125,-0.1808396577835083,-0.5346156358718872,-0.016431113705039024
1678040542858412500,6.02041259765625,-0.31018704175949097,-0.2735616862773895,-0.24623076617717743
1678040542878283500,6.040283447265625,-0.35568326711654663,-0.3475620746612549,-0.19314059615135193
1678040542898154500,6.060154541015625,-0.2970031201839447,-0.43973469734191895,0.0824643224477768
1678040542918024400,6.0800244140625,-0.16441403329372406,-0.31811755895614624,0.08929599076509476
1678040542937895400,6.0998955078125,0.005151701159775257,-0.022965505719184875,-0.1412152349948883
1678040542957766700,6.1197666015625,0.09186654537916183,0.1964048147201538,-0.22314216196537018
1678040542977636600,6.13963671875,0.09608405828475952,0.08261864632368088,-0.07387463748455048
1678040542997507600,6.159507568359375,0.0623457208275795,-0.09170542657375336,0.09782720357179642
1678040543017378600,6.179378662109375,0.03102031722664833,-0.024756746366620064,0.023060524836182594
1678040543037248500,6.19924853515625,0.023628510534763336,0.05458194762468338,-0.0514715276658535
1678040543057119500,6.219119384765625,0.02162291295826435,0.0194050632417202,-0.004529345780611038
1678040543076990700,6.23899072265625,-0.0021363599225878716,0.029726272448897362,-0.01770971529185772
1678040543096860400,6.2588603515625,0.04340645298361778,0.001676830230280757,0.014728367328643799
1678040543116731400,6.2787314453125,0.025042995810508728,-0.01208680309355259,0.010970615781843662
1678040543136602400,6.298602294921875,-0.00044724810868501663,-0.11057993024587631,0.05665215104818344
1678040543156472300,6.318472412109375,-0.02180236577987671,-0.140387624502182,0.04017360508441925
1678040543176343600,6.338343505859375,0.03127465024590492,-0.1225980892777443,0.012669669464230537
1678040543196214500,6.358214599609375,0.10333003848791122,-0.0668216124176979,-0.008411867544054985
1678040543216084500,6.37808447265625,0.13599759340286255,-0.03684723377227783,-0.0028301943093538284
1678040543235955500,6.39795556640625,0.0887296050786972,-0.01967102661728859,-0.00406041881069541
1678040543255826400,6.417826416015625,0.020577475428581238,-0.008683969266712666,-0.015722731128335
1678040543275696600,6.437696533203125,-0.0016033132560551167,0.008203274570405483,-0.03048105165362358
1678040543295567600,6.457567626953125,0.00711507722735405,0.03331821411848068,-0.025347275659441948
1678040543315438600,6.4774384765625,-0.0217759869992733,0.051602937281131744,-0.0006333809578791261
1678040543335308500,6.49730859375,-0.023144520819187164,0.03999903053045273,0.021518802270293236
1678040543355179500,6.517179443359375,-0.020095158368349075,0.13090960681438446,-0.009016662836074829
1678040543375050500,6.537050537109375,-0.03542588651180267,0.22654284536838531,0.0064421240240335464
1678040543394921500,6.55692138671875,-0.04936336725950241,0.35611099004745483,-0.012212464585900307
1678040543414791700,6.576791748046875,-0.0029177567921578884,0.5297377705574036,-0.03680851310491562
1678040543434662700,6.59666259765625,0.10784875601530075,0.8404081463813782,-0.02370988391339779
1678040543454533600,6.61653369140625,0.24264954030513763,0.9948496222496033,0.07093751430511475
1678040543474403300,6.6364033203125,0.28923022747039795,1.0694587230682373,0.1429378092288971
1678040543494274600,6.656274658203125,0.0770372599363327,1.497528314590454,0.05101664364337921
1678040543514145500,6.6761455078125,-0.1582309901714325,2.3055076599121094,-0.2248069792985916
1678040543534015500,6.696015380859375,-0.31048643589019775,2.954340696334839,-0.37264740467071533
1678040543553886500,6.715886474609375,-0.010754894465208054,2.703813314437866,0.08353877067565918
1678040543573757400,6.73575732421875,0.3114866614341736,2.3895914554595947,0.11208314448595047
1678040543593627400,6.75562744140625,-0.018271349370479584,2.85249400138855,-0.18232712149620056
1678040543613498400,6.775498291015625,-0.33771610260009766,3.455092430114746,-0.24692746996879578
1678040543633369300,6.795369384765625,-0.2981114685535431,3.5452990531921387,-0.366710364818573
1678040543653239600,6.815239501953125,-0.45667564868927,3.483839750289917,-0.5676472187042236
1678040543673110500,6.835110595703125,-0.4682982265949249,3.285153388977051,-0.40247398614883423
1678040543692981500,6.8549814453125,-0.4846746623516083,3.317850112915039,-0.041459739208221436
1678040543712851500,6.8748515625,-0.6408273577690125,3.1461877822875977,0.5858853459358215
1678040543732722400,6.894722412109375,-0.6068276166915894,2.891143560409546,1.212709903717041
1678040543752593400,6.914593505859375,-0.355175256729126,2.837509870529175,1.1282386779785156
1678040543772463600,6.934463623046875,0.09574726969003677,3.3041322231292725,0.6428909301757812
1678040543792334600,6.95433447265625,0.6673035025596619,4.155230522155762,0.21718204021453857
1678040543812205600,6.97420556640625,1.0032798051834106,4.295681476593018,-0.17276069521903992
1678040543832076500,6.99407666015625,0.6563979983329773,4.343163013458252,-0.3341914415359497
1678040543851946500,7.013946533203125,0.48457780480384827,4.060561180114746,-0.4038863778114319
1678040543871817500,7.0338173828125,0.7094690799713135,3.6202123165130615,-0.47366032004356384
1678040543891688700,7.053688720703125,0.653239369392395,3.452498197555542,-0.4820345342159271
1678040543911558400,7.073558349609375,0.7096548676490784,3.031513214111328,-0.44938406348228455
1678040543931429400,7.093429443359375,0.9252862334251404,2.8741326332092285,-0.3996381163597107
1678040543951300400,7.11330029296875,0.7670566439628601,2.7799055576324463,-0.33058422803878784
1678040543971170300,7.13317041015625,0.38901421427726746,2.129079818725586,-0.18628154695034027
1678040543991041500,7.15304150390625,-0.06006843224167824,1.5239427089691162,-0.09193917363882065
1678040544010912500,7.17291259765625,-0.38446420431137085,1.2597050666809082,-0.01375491265207529
1678040544030782500,7.192782470703125,-0.6335804462432861,0.5931621193885803,0.005332872271537781
1678040544050653400,7.2126533203125,-0.5851662755012512,-0.04811563715338707,0.2830239534378052
1678040544070524400,7.2325244140625,-0.2622142732143402,0.06905130296945572,0.6653911471366882
1678040544090394400,7.252394287109375,-0.06221175938844681,0.41201120615005493,0.6161989569664001
1678040544110265300,7.272265380859375,-0.34685730934143066,-0.11491073668003082,0.27100101113319397
1678040544130136600,7.292136474609375,-0.30413195490837097,-0.3778074383735657,0.16141635179519653
1678040544150007600,7.312007568359375,0.004631063900887966,-0.2355768382549286,0.14458222687244415
1678040544169877200,7.331877197265625,-0.1111535131931305,-0.2735495865345001,0.15033987164497375
1678040544189748200,7.351748291015625,-0.3450307846069336,-0.37384626269340515,0.20126917958259583
1678040544209619200,7.371619140625,-0.417206346988678,-0.02461405098438263,0.0010633282363414764
1678040544229489400,7.391489501953125,-0.3758847415447235,0.381148099899292,-0.28832393884658813
1678040544249360400,7.4113603515625,-0.27876853942871094,0.21927541494369507,-0.2764643430709839
1678040544269231400,7.4312314453125,-0.23069190979003906,0.029316894710063934,-0.1003098115324974
1678040544289101300,7.451101318359375,-0.04780196771025658,-0.07180563360452652,0.053226057440042496
1678040544308972300,7.47097216796875,-0.07703333348035812,0.23510947823524475,0.1958867311477661
1678040544328843300,7.49084326171875,-0.048926472663879395,0.3824598491191864,0.26252591609954834
1678040544348713500,7.51071337890625,-0.08212851732969284,0.6055254340171814,0.09466324001550674
1678040544368584400,7.53058447265625,-0.00034373393282294273,0.6582731008529663,-0.06508322060108185
1678040544388455400,7.550455322265625,0.3103120028972626,1.0561050176620483,-0.07464009523391724
1678040544408325400,7.570325439453125,0.5493456721305847,1.2955846786499023,-0.18253906071186066
1678040544428196400,7.5901962890625,0.48896482586860657,1.4336658716201782,-0.5219627022743225
1678040544448067300,7.6100673828125,0.6319774985313416,1.5830152034759521,-0.7081653475761414
1678040544467938300,7.629938232421875,0.94739830493927,2.2926554679870605,-0.6389394998550415
1678040544487808500,7.64980859375,1.000571608543396,3.2386717796325684,-0.6347942352294922
1678040544507679500,7.669679443359375,0.8313639760017395,3.4501068592071533,-0.6462859511375427
1678040544527550500,7.689550537109375,0.26262804865837097,3.22487211227417,-0.17976254224777222
1678040544547420200,7.709420166015625,-0.04231749475002289,3.136859655380249,0.48139330744743347
1678040544567291100,7.729291015625,0.12266895920038223,3.2425661087036133,0.7840271592140198
1678040544587162400,7.749162353515625,0.2783896028995514,3.347829580307007,0.9778187870979309
1678040544607032300,7.7690322265625,0.39995336532592773,3.5207889080047607,0.830531120300293
1678040544626903300,7.7889033203125,0.4156101644039154,3.583120346069336,0.14907455444335938
1678040544646774300,7.808774169921875,0.3302139639854431,3.494948625564575,-0.25818175077438354
1678040544666644200,7.828644287109375,0.23112761974334717,3.187962532043457,-0.0550759918987751
1678040544686515500,7.848515380859375,0.10983732342720032,2.9599380493164062,0.2246473729610443
1678040544706386400,7.868386474609375,0.19694307446479797,3.016819477081299,0.15136487782001495
1678040544726257400,7.88825732421875,0.26611295342445374,3.241441249847412,-0.09965295344591141
1678040544746127400,7.90812744140625,0.12758013606071472,3.253948926925659,-0.3382764160633087
1678040544765998300,7.927998291015625,-0.06641131639480591,3.139033317565918,-0.33326417207717896
1678040544785869300,7.947869384765625,-0.2209886610507965,3.1460671424865723,-0.10203485935926437
1678040544805739500,7.967739501953125,-0.308188796043396,3.029155969619751,0.022133752703666687
1678040544825610500,7.987610595703125,-0.49398088455200195,2.8996036052703857,0.06437410414218903
1678040544845481500,8.0074814453125,-0.7668879628181458,3.169736862182617,0.15717782080173492
1678040544865351400,8.027351318359376,-0.6442618370056152,3.2949652671813965,0.11494962126016617
1678040544885222400,8.047222412109376,-0.5032702684402466,3.1749720573425293,0.005464780144393444
1678040544905093400,8.06709326171875,-0.3527308404445648,2.7406299114227295,-0.06502421200275421
1678040544924964400,8.08696435546875,-0.08123647421598434,1.8808974027633667,0.07068905979394913
1678040544944835000,8.1068349609375,0.1893392950296402,0.8540717959403992,-0.01808066852390766
1678040544964706000,8.1267060546875,0.16200469434261322,-0.09268911182880402,-0.13254299759864807
1678040544984577000,8.146576904296875,0.17144618928432465,-0.816914439201355,-0.21129637956619263
1678040545004447000,8.166447021484375,0.16387054324150085,-1.234022617340088,-0.17657002806663513
1678040545024318000,8.18631787109375,0.23128634691238403,-1.5222686529159546,0.0657377764582634
1678040545044189000,8.20618896484375,0.2263948619365692,-1.5216892957687378,0.17376823723316193
1678040545064059100,8.22605908203125,0.0077668288722634315,-1.0654611587524414,0.018131524324417114
1678040545083930000,8.24593017578125,-0.13491258025169373,-0.507023811340332,-0.14515027403831482
1678040545103801000,8.265801025390624,-0.0955476388335228,0.039245881140232086,-0.15045373141765594
1678040545123672000,8.285672119140624,0.011959736235439777,0.4873858094215393,-0.10482078790664673
1678040545143542000,8.3055419921875,0.08579179644584656,0.8919613361358643,-0.07808888703584671
1678040545163413000,8.3254130859375,0.055260371416807175,0.9398696422576904,-0.07714817672967911
1678040545183284000,8.345283935546876,0.04181678220629692,0.7075243592262268,-0.01541037205606699
1678040545203154200,8.365154296875,0.08911020308732986,0.4705713987350464,0.021617284044623375
1678040545223025200,8.385025146484375,0.13290688395500183,0.23118948936462402,0.045849770307540894
1678040545242896100,8.404896240234375,0.09100168943405151,-0.048466939479112625,0.07483447343111038
1678040545262765800,8.424765869140625,0.06480808556079865,-0.2874716520309448,0.07285350561141968
1678040545282636800,8.44463671875,0.05861534923315048,-0.4213676154613495,0.0809040367603302
1678040545302508000,8.464508056640625,0.04608505591750145,-0.3201988637447357,0.05023461952805519
1678040545322379000,8.48437890625,0.00565161369740963,-0.2870749831199646,0.008182240650057793
1678040545342249000,8.5042490234375,-0.04829830303788185,-0.19724741578102112,0.011063228361308575
1678040545362120000,8.524119873046875,-0.052072323858737946,0.0417947955429554,-0.049865011125802994
1678040545381991000,8.543990966796875,0.011206553317606449,0.21310114860534668,-0.04713413119316101
1678040545401860900,8.56386083984375,0.09545426815748215,0.2223784178495407,0.0037661967799067497
1678040545421731800,8.58373193359375,0.05602332204580307,0.24147392809391022,0.031300198286771774
1678040545441603000,8.60360302734375,0.021267443895339966,0.2519899308681488,-0.001969051081687212
1678040545461473000,8.62347314453125,0.012790560722351074,0.2772142291069031,-0.06353794783353806
1678040545481344000,8.643343994140626,0.014409351162612438,0.18925370275974274,-0.08657916635274887
1678040545501215000,8.663215087890626,0.017908558249473572,0.11646617203950882,-0.05963665246963501
1678040545521086000,8.6830859375,0.015506240539252758,0.072351835668087,-0.060333721339702606
1678040545540956000,8.702955810546875,0.016601599752902985,0.0040609282441437244,-0.05818561464548111
1678040545560827100,8.7228271484375,0.01890663057565689,-0.057527847588062286,-0.0583062507212162
1678040545580698000,8.742697998046875,0.016623850911855698,-0.1779140681028366,-0.029434809461236
1678040545600568000,8.762568115234375,0.01605827361345291,-0.29046934843063354,0.006292631849646568
1678040545620439000,8.78243896484375,0.047319166362285614,-0.40311211347579956,0.03381090238690376
1678040545640310000,8.80231005859375,0.15730072557926178,-0.5615288615226746,0.0773291140794754
1678040545660181000,8.822180908203125,0.2066032588481903,-0.8384996652603149,0.1501201093196869
1678040545680051200,8.84205126953125,0.19834905862808228,-1.1422946453094482,0.21716471016407013
1678040545699922200,8.861922119140624,0.20386959612369537,-1.4481675624847412,0.2346000075340271
1678040545719793200,8.881793212890624,0.17989295721054077,-1.7822202444076538,0.27101951837539673
1678040545739662800,8.901662841796876,0.1382395625114441,-2.411336898803711,0.35076069831848145
1678040545759533800,8.921533935546876,0.14285872876644135,-3.045921564102173,0.4859209656715393
1678040545779405000,8.941405029296876,0.24522362649440765,-3.627890110015869,0.6035217642784119
1678040545799275000,8.96127490234375,0.27560538053512573,-4.264874458312988,0.669526994228363
1678040545819146000,8.98114599609375,0.16391944885253906,-4.474125385284424,0.4907180666923523
1678040545839017000,9.001016845703125,-0.21390342712402344,-3.976710557937622,-0.0933266133069992
1678040545858888000,9.020887939453125,-0.08582582324743271,-3.3850958347320557,-0.47120049595832825
1678040545878758000,9.0407578125,0.2449709177017212,-2.9519667625427246,-0.5025434494018555
1678040545898628900,9.06062890625,0.16921097040176392,-2.9450490474700928,-0.23451225459575653
1678040545918499800,9.080499755859375,-0.05531264469027519,-3.1413936614990234,-0.003691836027428508
1678040545938370000,9.1003701171875,-0.16912813484668732,-3.3863892555236816,0.014444800093770027
1678040545958241000,9.120240966796874,-0.22944426536560059,-3.4680023193359375,-0.2542057931423187
1678040545978112000,9.140112060546874,-0.17625725269317627,-3.6803925037384033,-0.4875175654888153
1678040545997983000,9.15998291015625,-0.1995856761932373,-4.075816631317139,-0.18485122919082642
1678040546017853000,9.17985302734375,-0.32706376910209656,-4.339921951293945,0.10636968910694122
1678040546037724000,9.199723876953126,-0.4536147117614746,-3.9541983604431152,0.07860081642866135
1678040546057595100,9.21959521484375,-0.3651488125324249,-3.3248648643493652,-0.17251873016357422
1678040546077465000,9.239465087890625,-0.10177068412303925,-2.8332431316375732,-0.33425989747047424
1678040546097336000,9.259336181640625,-0.02786681056022644,-2.4797019958496094,-0.21679240465164185
1678040546117207000,9.27920703125,-0.18245571851730347,-2.4711291790008545,0.10802667587995529
1678040546137078000,9.299078125,-0.3689940571784973,-2.4649617671966553,0.43856292963027954
1678040546156948000,9.318947998046875,-0.43727627396583557,-2.543515920639038,0.726981520652771
1678040546176819200,9.338819091796875,-0.22664190828800201,-1.9414454698562622,0.580514669418335
1678040546196690200,9.358690185546875,-0.19115246832370758,-1.1054438352584839,-0.051097724586725235
1678040546216559900,9.378559814453125,-0.01863536611199379,-0.29469233751296997,-0.32641106843948364
1678040546236430800,9.398430908203125,0.12264243513345718,0.09672921895980835,-0.2634483575820923
1678040546256301800,9.4183017578125,0.08054704964160919,-0.15558020770549774,0.033497899770736694
1678040546276173000,9.438173095703124,-0.0005710097029805183,-0.4805959463119507,0.4241734445095062
1678040546296043000,9.45804296875,-0.06378237903118134,-0.19164639711380005,0.5268153548240662
1678040546315914000,9.4779140625,-0.0029599317349493504,0.14265704154968262,0.27349767088890076
1678040546335785000,9.497784912109376,0.10525467991828918,0.34394317865371704,-0.0946466326713562
1678040546355655000,9.517655029296876,0.14345215260982513,0.2672005891799927,-0.23737651109695435
1678040546375526000,9.53752587890625,0.06748953461647034,0.015917493030428886,-0.14771799743175507
1678040546395396900,9.55739697265625,-0.009307600557804108,-0.08199773728847504,-0.0035205138847231865
1678040546415267800,9.577267822265625,-0.008090299554169178,-0.09875470399856567,0.0518103688955307
1678040546435138000,9.597137939453125,0.020620495080947876,-0.034570470452308655,0.09762304276227951
1678040546455009000,9.617009033203125,0.05682244524359703,0.08977518230676651,0.15262290835380554
1678040546474880000,9.6368798828125,0.04251398146152496,0.10719063133001328,0.1974170207977295
1678040546494750000,9.65675,0.03385904058814049,0.055012673139572144,0.21565143764019012
1678040546514621000,9.676620849609375,-0.0025524143129587173,0.12821704149246216,0.20403353869915009
1678040546534492000,9.696491943359375,-0.03426782786846161,0.10368992388248444,0.0988408699631691
1678040546554363100,9.716363037109375,-0.013185123912990093,0.19854578375816345,0.026504799723625183
1678040546574233000,9.736233154296874,-0.02498166635632515,0.2733038067817688,-0.039082251489162445
1678040546594104000,9.75610400390625,-0.015222536399960518,0.15479187667369843,-0.07391420006752014
1678040546613975000,9.77597509765625,-0.0016865534707903862,0.007395307067781687,-0.11230044066905975
1678040546633845000,9.795844970703126,-0.04718611389398575,-0.06196032091975212,-0.12139934301376343
1678040546653716000,9.815716064453126,-0.036216557025909424,0.04341110959649086,-0.07399027794599533
1678040546673587200,9.835587158203126,-0.003357089124619961,0.08683200925588608,-0.0809774324297905
1678040546693458200,9.855458251953126,0.03215960040688515,0.07780210673809052,0.022328777238726616
1678040546713327900,9.875327880859375,0.05137598514556885,0.02611364610493183,0.1753346472978592
1678040546733198800,9.89519873046875,0.026066605001688004,-0.023802170529961586,0.24139921367168427
1678040546753070000,9.915070068359375,0.057547833770513535,-0.04212285578250885,0.4296002686023712
1678040546772941000,9.934941162109375,0.1440037339925766,-0.02168225683271885,0.853284478187561
1678040546792811000,9.95481103515625,0.2063160240650177,0.047826752066612244,1.4169725179672241
1678040546812682000,9.974681884765625,0.3087426722049713,0.09399739652872086,2.008274555206299
1678040546832553000,9.994552978515625,0.4366306960582733,0.22909870743751526,2.436659336090088
1678040546852423000,10.0144228515625,0.46047329902648926,0.314640611410141,2.5764598846435547
1678040546872294000,10.0342939453125,0.2828218638896942,0.21795032918453217,2.570019006729126
1678040546892164900,10.054164794921874,0.10140345990657806,-0.00745416758581996,3.0741376876831055
1678040546912035800,10.074035888671874,0.04088495671749115,-0.004716900177299976,3.287229061126709
1678040546931905300,10.0939052734375,0.086270771920681,0.06431319564580917,3.1150217056274414
1678040546951776300,10.1137763671875,0.0007053771987557411,-0.09205027669668198,2.629045009613037
1678040546971647200,10.133647216796875,-0.20949529111385345,-0.22495800256729126,2.653245687484741
1678040546991518200,10.153518310546875,-0.07300791144371033,-0.03169368952512741,2.6585404872894287
1678040547011388400,10.173388427734375,-0.019029712304472923,0.03491931036114693,2.623143434524536
1678040547031259400,10.19325927734375,0.11759311705827713,-0.38114306330680847,2.6575138568878174
1678040547051130400,10.21313037109375,0.24121737480163574,-0.6152838468551636,3.007697820663452
1678040547071000300,10.233000244140625,0.2873724400997162,-0.7302262783050537,3.679211139678955
1678040547090871300,10.252871337890625,0.12033882737159729,-1.0490641593933105,4.1539130210876465
1678040547110742300,10.2727421875,-0.0528409406542778,-1.1055750846862793,4.274008750915527
1678040547130613200,10.29261328125,-0.18921731412410736,-0.6824058294296265,3.9977645874023438
1678040547150483500,10.3124833984375,-0.223729208111763,0.35165485739707947,3.405027389526367
1678040547170354400,10.3323544921875,-0.3125435709953308,0.9138603806495667,3.0130624771118164
1678040547190225400,10.352225341796874,-0.2726701498031616,0.7056577801704407,3.0505969524383545
1678040547210095400,10.372095458984376,-0.2635739743709564,0.3019835948944092,3.0002918243408203
1678040547229966300,10.39196630859375,-0.15851843357086182,0.4737111032009125,2.345947742462158
1678040547249837300,10.41183740234375,0.1030372828245163,0.3235192894935608,1.491283893585205
1678040547269708300,10.431708251953125,0.292672723531723,-0.4048752188682556,1.5582900047302246
1678040547289578200,10.451578125,0.4150143563747406,-0.5339386463165283,1.5238982439041138
1678040547309449200,10.47144921875,0.46318674087524414,-0.38245972990989685,1.193286418914795
1678040547329320200,10.4913203125,0.42873480916023254,-0.35615015029907227,1.0290135145187378
1678040547349191200,10.511191162109375,0.3109905421733856,-0.02691999450325966,0.7442916035652161
1678040547369061000,10.53106103515625,0.13507403433322906,0.26221272349357605,0.4755841791629791
1678040547388932400,10.550932373046875,0.006865214556455612,0.37070491909980774,0.3274286091327667
1678040547408803300,10.57080322265625,0.020392753183841705,0.21530070900917053,0.2844705581665039
1678040547428673300,10.59067333984375,0.055010613054037094,0.0822891891002655,0.3409777879714966
1678040547448544300,10.610544189453124,0.060045186430215836,0.17848341166973114,0.22617347538471222
1678040547468415200,10.630415283203124,0.021054856479167938,0.24283549189567566,0.12064522504806519
1678040547488286200,10.6502861328125,-0.013442520052194595,-0.018062280490994453,0.1919565498828888
1678040547508156400,10.670156494140626,-0.07546833902597427,-0.077586330473423,0.12078596651554108
1678040547528027400,10.69002734375,-0.10577896237373352,0.11099037528038025,-0.024139409884810448
1678040547547898400,10.7098984375,-0.06367305666208267,0.11164151877164841,-0.06344953179359436
1678040547567769300,10.729769287109375,0.02064034901559353,-0.07181400060653687,0.04668346419930458
1678040547587639300,10.749639404296875,0.05080002546310425,-0.16231241822242737,0.03690625727176666
1678040547607510300,10.76951025390625,0.003959999419748783,-0.0631997212767601,-0.07702624052762985
1678040547627381200,10.78938134765625,-0.012318266555666924,0.10756386071443558,-0.27949270606040955
1678040547647252200,10.809252197265625,0.007619194686412811,-0.03666761890053749,-0.24550729990005493
1678040547667122400,10.829122314453125,-0.035571832209825516,-0.05627146735787392,-0.2738308906555176
1678040547686993400,10.848993408203125,-0.13101720809936523,0.05701742693781853,-0.3706701993942261
1678040547706864400,10.868864501953125,-0.2385670244693756,0.3193763494491577,-0.536785900592804
1678040547726734300,10.888734375,-0.2762124240398407,0.5773429274559021,-0.8724738955497742
1678040547746605300,10.908605224609374,-0.256427139043808,0.3429790437221527,-1.0167373418807983
1678040547766476300,10.928476318359374,-0.2836497128009796,0.1264326125383377,-0.9462555050849915
1678040547786347300,10.94834716796875,-0.31256410479545593,0.28393906354904175,-1.1390447616577148
1678040547806217200,10.96821728515625,-0.368306964635849,0.42521563172340393,-1.6311675310134888
1678040547826088200,10.988088134765626,-0.4084097743034363,0.2584148645401001,-1.6131632328033447
1678040547845959200,11.007959228515626,-0.3854576051235199,0.4989960789680481,-1.7583138942718506
1678040547865830100,11.027830078125,-0.3165059983730316,0.6475761532783508,-2.1075925827026367
1678040547885700400,11.047700439453125,-0.24402974545955658,0.36420997977256775,-2.3925230503082275
1678040547905571300,11.0675712890625,-0.21836790442466736,-0.02791639417409897,-2.6335389614105225
1678040547925442300,11.0874423828125,-0.3077378273010254,-0.0765831246972084,-2.919349193572998
1678040547945313300,11.107313232421875,-0.37313035130500793,-0.11461073160171509,-3.2812840938568115
1678040547965183000,11.127182861328125,-0.3565668761730194,-0.040589164942502975,-3.4412519931793213
1678040547985054000,11.147053955078125,-0.326707661151886,0.39471739530563354,-3.649672031402588
1678040548004925000,11.166925048828125,-0.34432321786880493,0.49076253175735474,-3.95989727973938
1678040548024795100,11.186795166015624,-0.37916532158851624,0.36918362975120544,-4.214606285095215
1678040548044666000,11.206666015625,-0.3515160381793976,-0.056309934705495834,-3.9634714126586914
1678040548064537000,11.226537109375,-0.2319483906030655,-0.7046888470649719,-3.3319027423858643
1678040548084408000,11.246407958984374,-0.28205689787864685,-0.9806146621704102,-2.754765510559082
1678040548104278000,11.266278076171876,-0.28395795822143555,-0.767788827419281,-2.690826416015625
1678040548124149000,11.28614892578125,-0.33937501907348633,-0.5594440698623657,-2.881655693054199
1678040548144020000,11.30602001953125,-0.5364719033241272,-0.7610334157943726,-3.0771474838256836
1678040548163891200,11.32589111328125,-0.7153260111808777,-0.9579049348831177,-3.2487308979034424
1678040548183761200,11.34576123046875,-0.5542773604393005,-1.054531455039978,-3.3490424156188965
1678040548203632000,11.365632080078125,-0.1848919540643692,-0.961822509765625,-3.493494987487793
1678040548223503000,11.385503173828125,0.010654068551957607,-0.5752298831939697,-3.5069000720977783
1678040548243374000,11.4053740234375,-0.028063978999853134,0.10867928713560104,-3.2084543704986572
1678040548263244000,11.425244140625,0.22176076471805573,0.5392030477523804,-2.6381936073303223
1678040548283115300,11.445115234375,0.565398633480072,0.3288264274597168,-1.6984624862670898
1678040548302986200,11.464986328125,0.7001466155052185,0.4295094311237335,-0.7653035521507263
1678040548322857200,11.484857177734375,0.5646154284477234,0.22214940190315247,-0.2674596309661865
1678040548342727200,11.50472705078125,0.342717707157135,-0.04859995096921921,-0.27907752990722656
1678040548362598100,11.52459814453125,0.01753811165690422,-0.10245542228221893,-0.2862643003463745
1678040548382469000,11.54446923828125,-0.12885861098766327,-0.08749844133853912,-0.20486760139465332
1678040548402340000,11.564340087890624,-0.013531949371099472,-0.08325901627540588,0.00863772351294756
1678040548422210300,11.584210205078126,0.06677284091711044,-0.17233408987522125,0.22830452024936676
1678040548442081300,11.604081298828126,0.09343510121107101,-0.13258887827396393,0.3153064548969269
1678040548461952300,11.6239521484375,0.1298096776008606,0.20648284256458282,0.15356780588626862
1678040548481822000,11.643822021484375,0.23985789716243744,0.2461579144001007,-0.2531162202358246
1678040548501693000,11.66369287109375,0.4778570830821991,0.26871880888938904,-0.6484361886978149
1678040548521564000,11.68356396484375,0.6645607948303223,0.3672352731227875,-0.6574310660362244
1678040548541435100,11.70343505859375,0.12368952482938766,-0.24899038672447205,-0.7014658451080322
1678040548561305000,11.72330517578125,-0.27653437852859497,-0.38714510202407837,-0.46300724148750305
1678040548581176000,11.743176025390625,-0.3790520429611206,-0.38378819823265076,-0.11313905566930771
1678040548601047000,11.763047119140625,-0.26591363549232483,-0.12865526974201202,0.0770854577422142
1678040548620918000,11.78291796875,-0.15774615108966827,0.23646757006645203,0.3015441298484802
1678040548640788000,11.8027880859375,-0.29004475474357605,0.26913028955459595,0.9241007566452026
1678040548660659200,11.8226591796875,-0.5378249883651733,0.3047524392604828,1.2705024480819702
1678040548680530200,11.8425302734375,-0.5336788892745972,0.3389115333557129,1.271356225013733
1678040548700401200,11.862401123046874,-0.38466018438339233,0.152578666806221,0.8046223521232605
1678040548720271000,11.88227099609375,-0.21978920698165894,-0.3261318504810333,-0.2598898410797119
1678040548740142000,11.90214208984375,-0.020269401371479034,-0.36660751700401306,-1.0597171783447266
1678040548760013000,11.922012939453126,0.17437320947647095,0.08212496340274811,-0.8880013823509216
1678040548779884000,11.941884033203126,0.3244442939758301,0.01264409814029932,-0.4714338183403015
1678040548799754200,11.961754150390625,0.3412374258041382,-0.3405522108078003,-0.599503219127655
1678040548819625200,11.981625244140625,0.3297376036643982,-0.3408347964286804,-0.797875165939331
1678040548839496200,12.00149609375,0.24417248368263245,-0.015421130694448948,-0.6936788558959961
1678040548859367200,12.0213671875,0.11079654097557068,0.14161045849323273,-0.5075618624687195
1678040548879237000,12.041237060546875,0.04842831939458847,0.004118671640753746,-0.2953459322452545
1678040548899108000,12.061108154296875,0.06511584669351578,-0.21725423634052277,-0.06807181984186172
1678040548918979000,12.08097900390625,0.11596063524484634,-0.15209496021270752,0.018202021718025208
1678040548938849800,12.100849853515625,0.12933644652366638,0.16428755223751068,-0.5787276029586792
1678040548958719700,12.1207197265625,0.001367306336760521,0.3502148985862732,-1.3953325748443604
1678040548978590700,12.1405908203125,-0.05649186670780182,-0.061851970851421356,-1.175072431564331
1678040548998461700,12.160461669921874,-0.002112447749823332,-0.3334333896636963,-0.6525476574897766
1678040549018332700,12.180332763671874,0.007161798886954784,-0.44258320331573486,-0.4145517349243164
1678040549038203000,12.200202880859376,0.05652877315878868,-0.2756994366645813,-0.43085163831710815
1678040549058073900,12.220073974609376,0.04510975256562233,0.16094352304935455,-0.8937835097312927
1678040549077944800,12.23994482421875,-0.1450508087873459,-0.062244713306427,-1.6498907804489136
1678040549097815800,12.25981591796875,-0.28159788250923157,-0.08087276667356491,-2.2927613258361816
1678040549117685800,12.279685791015625,-0.2068994641304016,-0.18424063920974731,-2.116931915283203
1678040549137556700,12.299556640625,-0.10711856931447983,0.1308548003435135,-1.6475105285644531
1678040549157427700,12.319427734375,-0.0036057326942682266,0.021910052746534348,-1.7328572273254395
1678040549177298700,12.339298583984375,0.012069418095052242,0.2511093318462372,-2.2728865146636963
1678040549197169000,12.3591689453125,-0.06270181387662888,0.7590805888175964,-2.4531431198120117
1678040549217040000,12.379039794921875,-0.04818747565150261,0.7729945182800293,-2.391901731491089
1678040549236910800,12.398910888671875,0.08209261298179626,0.7769224047660828,-2.338649034500122
1678040549256781800,12.41878173828125,0.262190580368042,0.3087170720100403,-2.2155768871307373
1678040549276651800,12.43865185546875,0.13341258466243744,-0.14406117796897888,-1.932573914527893
1678040549296522800,12.458522705078124,-0.017246097326278687,-1.0066872835159302,-1.767286777496338
1678040549316393700,12.478393798828124,-0.007835512980818748,-0.9141170978546143,-1.5766699314117432
1678040549336265000,12.498264892578124,0.36274561285972595,-0.00472014956176281,-1.24778413772583
1678040549356135000,12.518135009765626,0.5585101246833801,-0.31806978583335876,-1.6575099229812622
1678040549376006000,12.538005859375,0.2006499320268631,-0.9595745801925659,-2.688734292984009
1678040549395876900,12.557876953125,-0.5905881524085999,-1.6651744842529297,-3.2189090251922607
1678040549415747800,12.577747802734375,-0.8080086708068848,-0.43845710158348083,-2.4211573600769043
1678040549435617800,12.59761767578125,-0.566291332244873,0.08331592381000519,-2.173557996749878
1678040549455488800,12.61748876953125,-0.21208883821964264,0.27330324053764343,-2.1386921405792236
1678040549475359700,12.63735986328125,-0.10756343603134155,0.28727343678474426,-2.286332845687866
1678040549495230700,12.657230712890625,-0.3880901336669922,0.3635077178478241,-2.577059268951416
1678040549515100700,12.6771005859375,-0.6988836526870728,0.32866764068603516,-2.8212387561798096
1678040549534971600,12.6969716796875,-0.6695621013641357,-0.0007186171133071184,-2.7777512073516846
1678040549554842600,12.716842529296875,-0.6740142107009888,-0.22128909826278687,-2.987933874130249
1678040549574713600,12.736713623046874,-0.7444232702255249,-0.28908950090408325,-3.261979579925537
1678040549594583800,12.756583740234374,-0.46427467465400696,-0.09258949011564255,-3.068376064300537
1678040549614454800,12.776454833984374,0.06452158838510513,-0.10345819592475891,-2.5807435512542725
1678040549634325800,12.79632568359375,0.3272390365600586,-0.14962990581989288,-2.1883199214935303
1678040549654196700,12.81619677734375,0.4065319299697876,0.08395522087812424,-2.1860251426696777
1678040549674066700,12.836066650390626,0.5059813857078552,0.3137665390968323,-2.111776351928711
1678040549693937700,12.855937744140626,0.42915305495262146,0.38589444756507874,-1.7876547574996948
1678040549713809000,12.875808837890625,0.44281667470932007,0.1934390664100647,-1.4131641387939453
1678040549733679900,12.895679931640625,0.5102605819702148,-0.0935988649725914,-1.1751649379730225
1678040549753549800,12.9155498046875,0.4679356515407562,-0.1921750009059906,-1.0028501749038696
1678040549773420800,12.9354208984375,0.5097747445106506,-0.16162611544132233,-0.7226115465164185
1678040549793291800,12.955291748046875,0.48476335406303406,-0.2173769325017929,-0.4598868787288666
1678040549813162800,12.975162841796875,0.5500958561897278,-0.5760109424591064,-0.2983243763446808
1678040549833033000,12.995032958984375,0.6931283473968506,-0.9088297486305237,0.1219189465045929
1678040549852904000,13.014904052734375,0.6658124327659607,-0.7972527742385864,0.46840882301330566
1678040549872775000,13.03477490234375,0.4674375057220459,-0.5163892507553101,0.44366446137428284
1678040549892646000,13.05464599609375,0.19817900657653809,-0.19768959283828735,0.1123911663889885
1678040549912515800,13.074515869140624,0.09067314118146896,0.004739150404930115,-0.03992753475904465
1678040549932386800,13.09438671875,0.15442827343940735,0.0724022164940834,0.09993650019168854
1678040549952258000,13.114258056640624,0.1542835831642151,0.08057915419340134,0.09773772954940796
1678040549972129000,13.13412890625,0.08452718704938889,0.13720251619815826,0.00250717019662261
1678040549992000000,13.154,0.0263647623360157,0.1675078570842743,0.001116868108510971
1678040550011870200,13.1738701171875,0.04343457147479057,0.07426667213439941,0.11960899084806442
1678040550031741200,13.1937412109375,0.04645341634750366,-0.10532459616661072,0.014830192551016808
1678040550051612200,13.213612060546875,0.07889378070831299,-0.1156187355518341,0.024818135425448418
1678040550071483100,13.233483154296875,0.16751664876937866,-0.09289689362049103,0.1166711077094078
1678040550091353000,13.25335302734375,0.11428641527891159,-0.01776362583041191,0.0748082622885704
1678040550111224000,13.27322412109375,0.014815269969403744,-0.0166871789842844,0.05619512498378754
1678040550131095300,13.29309521484375,-0.0009330925531685352,-0.049325283616781235,0.17059388756752014
1678040550150966300,13.31296630859375,0.0015924526378512383,-0.13044363260269165,0.34715452790260315
1678040550170836200,13.332836181640625,-0.03916977345943451,-0.04459322616457939,0.4620940685272217
1678040550190707200,13.352707275390625,-0.14117340743541718,-0.016081443056464195,0.49936071038246155
1678040550210578200,13.372578125,-0.1948077529668808,0.061283178627491,0.6233035326004028
1678040550230449200,13.39244921875,-0.15053722262382507,0.18587268888950348,0.719258189201355
1678040550250319000,13.412319091796874,-0.0892302617430687,0.2516651451587677,0.7584121227264404
1678040550270190300,13.4321904296875,0.07772860676050186,0.3631414473056793,1.217729926109314
1678040550290061300,13.452061279296874,0.20543330907821655,0.3262982964515686,1.7402595281600952
1678040550309932300,13.471932373046876,0.19533613324165344,0.3537919521331787,1.9882360696792603
1678040550329802000,13.491802001953126,0.02123643457889557,0.509060800075531,1.8330645561218262
1678040550349673000,13.5116728515625,-0.045325614511966705,0.6054565906524658,1.6488819122314453
1678040550369544000,13.5315439453125,-0.0010889805853366852,0.624788761138916,1.7982887029647827
1678040550389415000,13.551414794921875,0.19708237051963806,0.29462796449661255,2.1293041706085205
1678040550409285000,13.57128515625,0.20282037556171417,-0.08013181388378143,2.1901183128356934
1678040550429156000,13.591156005859375,0.11583461612462997,-0.29029810428619385,2.0783023834228516
1678040550449027000,13.611027099609375,0.1655036360025406,-0.30700305104255676,2.2424871921539307
1678040550468898000,13.63089794921875,0.352309912443161,-0.2732478380203247,2.734300136566162
1678040550488769000,13.65076904296875,0.43262979388237,-0.5478122234344482,3.1476917266845703
1678040550508639000,13.670638916015625,0.24028661847114563,-0.9632838368415833,3.361652135848999
1678040550528510200,13.69051025390625,0.2897678017616272,-1.1789429187774658,3.610527992248535
1678040550548381200,13.710381103515624,0.20788545906543732,-0.907227098941803,4.102450370788574
1678040550568252200,13.730252197265624,0.28908059000968933,-0.7929867506027222,4.811812400817871
1678040550588122000,13.7501220703125,0.14485760033130646,-0.6715869903564453,4.847131729125977
1678040550607993000,13.7699931640625,-0.15350857377052307,-0.8144992589950562,4.73600959777832
1678040550627864000,13.789864013671876,-0.21456164121627808,-1.324913501739502,5.140152454376221
1678040550647735000,13.809735107421876,-0.12156196683645248,-1.958235502243042,5.775598526000977
1678040550667605200,13.829605224609375,0.08115331828594208,-1.7139031887054443,6.311059951782227
1678040550687476200,13.849476318359375,0.026163093745708466,-1.083795189857483,6.267203330993652
1678040550707347200,13.86934716796875,-0.06337877362966537,-1.7005218267440796,4.850180149078369
1678040550727218200,13.88921826171875,-0.9122576713562012,-2.8999404907226562,1.9068852663040161
1678040550747089200,13.909089111328125,-0.6733983755111694,0.46291837096214294,0.8585233688354492
1678040550766959000,13.928958984375,-0.33596205711364746,1.0200022459030151,0.7446547150611877
1678040550786830000,13.948830078125,-0.2171001434326172,1.134792685508728,0.8160398602485657
1678040550806701000,13.968701171875,-0.26076552271842957,1.4137402772903442,0.3162058889865875
1678040550826572300,13.988572265625,-0.20946866273880005,1.8344194889068604,-0.21326464414596558
1678040550846442200,14.008442138671874,-0.16700652241706848,1.6782828569412231,-0.30669575929641724
1678040550866313200,14.028313232421874,-0.19329021871089935,1.636407732963562,0.04359579458832741
1678040550886184200,14.04818408203125,-0.17673428356647491,1.7280511856079102,0.4998224973678589
1678040550906055200,14.06805517578125,-0.21224506199359894,0.8997389674186707,0.3791707456111908
1678040550925925000,14.087925048828126,-0.32675448060035706,0.459649920463562,-0.013544111512601376
1678040550945796000,14.107796142578126,-0.4025236666202545,0.5017446875572205,-0.2875138521194458
1678040550965667000,14.1276669921875,-0.2649877965450287,0.6067252159118652,-0.2897028923034668
1678040550985538000,14.1475380859375,-0.08134164661169052,0.3734871745109558,-0.1884082555770874
1678040551005408000,14.167407958984375,-0.03992672264575958,-0.004690736066550016,-0.11105883121490479
1678040551025279000,14.187279052734375,-0.0642162412405014,-0.24234639108181,-0.13554762303829193
1678040551045150000,14.20714990234375,-0.09302881360054016,-0.3301432430744171,-0.17751973867416382
1678040551065021000,14.22702099609375,-0.08581990003585815,-0.3453919589519501,-0.16313707828521729
1678040551084892200,14.24689208984375,-0.05715463310480118,-0.3350050747394562,-0.12156004458665848
1678040551104762000,14.26676220703125,-0.10394830256700516,-0.41035446524620056,-0.19195246696472168
1678040551124633000,14.286633056640625,-0.018153276294469833,-0.31182026863098145,-0.1455962359905243
1678040551144504000,14.306504150390625,0.009663105942308903,-0.17920435965061188,-0.08345772325992584
1678040551164375000,14.326375,-0.04050358757376671,-0.06608264893293381,0.003948782570660114
1678040551184245000,14.346244873046874,-0.03639128431677818,-0.0610104538500309,0.060179755091667175
1678040551204116200,14.3661162109375,-0.023852333426475525,-0.06204365938901901,0.043858159333467484
1678040551223987200,14.3859873046875,0.0007523428648710251,-0.1490466594696045,0.026714906096458435
1678040551243858200,14.405858154296874,-0.026509903371334076,-0.2305215448141098,0.10921084880828857
1678040551263729200,14.425729248046874,0.038098983466625214,-0.2587015926837921,0.2647990882396698
1678040551283599000,14.44559912109375,0.09403113275766373,-0.16410285234451294,0.36075255274772644
1678040551303470000,14.465469970703126,0.052942682057619095,-0.06265314668416977,0.27588775753974915
1678040551323341000,14.485341064453126,-0.005040631629526615,0.04452970623970032,0.14667591452598572
1678040551343212000,14.5052119140625,0.010522603057324886,-0.020295191556215286,0.17292766273021698
1678040551363082200,14.525082275390625,0.07238246500492096,-0.12338491529226303,0.3133363723754883
1678040551382953200,14.544953125,0.024775829166173935,-0.08709675818681717,0.3500511646270752
1678040551402824200,14.56482421875,0.027258336544036865,0.01400940865278244,0.3258148431777954
1678040551422695200,14.584695068359375,0.0454697348177433,-0.16016872227191925,0.2360815554857254
1678040551442565000,14.604565185546875,0.025319566950201988,-0.17473536729812622,0.08983544260263443
1678040551462436000,14.62443603515625,0.004776672460138798,-0.13849076628684998,-0.020556269213557243
1678040551482307000,14.64430712890625,0.010305703617632389,-0.15633445978164673,-0.024938736110925674
1678040551502178300,14.66417822265625,0.026656964793801308,-0.10613716393709183,0.01882888562977314
1678040551522049300,14.68404931640625,0.020959876477718353,-0.08297151327133179,0.010272283107042313
1678040551541919200,14.703919189453124,-0.015399711206555367,-0.11042042076587677,-0.03179975226521492
1678040551561790200,14.723790283203124,-0.023624103516340256,0.08795230090618134,-0.13418050110340118
1678040551581661200,14.7436611328125,0.017763901501893997,0.2239447981119156,-0.08654926717281342
1678040551601532200,14.7635322265625,0.040501248091459274,0.03980516642332077,0.07327698916196823
1678040551621402000,14.783402099609376,0.0139360586181283,-0.0628250315785408,0.13527542352676392
1678040551641273000,14.803273193359376,-0.01871423050761223,-0.11431962996721268,0.11675342172384262
1678040551661144000,14.82314404296875,-0.054752498865127563,-0.057124555110931396,0.04250311106443405
1678040551681015000,14.84301513671875,-0.07467363774776459,-0.028019631281495094,0.05777398869395256
1678040551700886000,14.862885986328125,-0.04162151366472244,0.0004755530972033739,0.12355557084083557
1678040551720756000,14.882755859375,0.011209633201360703,-0.03932588919997215,0.17294417321681976
1678040551740627000,14.902626953125,-0.005843386985361576,-0.22529096901416779,0.17174015939235687
1678040551760498000,14.922497802734375,-0.03953885659575462,-0.23721341788768768,0.04150598496198654
1678040551780369200,14.942369140625,-0.05051413178443909,-0.14663758873939514,-0.05918188393115997
1678040551800239000,14.962239013671875,0.0059353867545723915,-0.08482027798891068,0.020813073962926865
1678040551820110000,14.982110107421875,0.052543092519044876,0.043178800493478775,0.03371195122599602
1678040551839981000,15.00198095703125,0.06098040193319321,0.15946534276008606,-0.003738630097359419
1678040551859852000,15.02185205078125,0.06754546612501144,0.2412979155778885,-0.01303834468126297
1678040551879723000,15.041722900390624,0.029672835022211075,0.2514425814151764,-0.0607931949198246
1678040551899593200,15.06159326171875,0.023043271154165268,0.28065139055252075,-0.06999091058969498
1678040551919464200,15.081464111328126,0.06776998937129974,0.18668420612812042,-0.0034579099155962467
1678040551939335400,15.10133544921875,0.14920246601104736,0.1275440901517868,-0.017611872404813766
1678040551959206400,15.121206298828126,0.23996314406394958,0.10371719300746918,-0.12916091084480286
1678040551979076000,15.141076171875,0.4749141335487366,0.027826057747006416,-0.10258053243160248
1678040551998947000,15.160947021484375,0.387247234582901,-0.058922916650772095,0.1486027091741562
1678040552018818000,15.180818115234375,-0.3280124366283417,0.12911902368068695,-0.06131894513964653
1678040552038689000,15.20068896484375,-0.5791251063346863,0.50749272108078,-0.45699435472488403
1678040552058560300,15.220560302734375,-0.3791060149669647,0.7901105880737305,-0.797548234462738
1678040552078430200,15.24043017578125,-0.07992486655712128,0.46682989597320557,-0.52848881483078
1678040552098301200,15.26030126953125,-0.08334121108055115,-0.008100970648229122,0.04205822944641113
1678040552118172200,15.280172119140625,-0.28360888361930847,-0.2213062047958374,0.24601934850215912
1678040552138043100,15.300043212890625,-0.11945659667253494,-0.5122670531272888,-0.042954303324222565
1678040552157913000,15.3199130859375,0.1992262899875641,-0.5825478434562683,-0.4760284423828125
1678040552177784300,15.339784423828124,0.3748534321784973,-0.3981415331363678,-0.6825752258300781
1678040552197655300,15.3596552734375,0.4286937117576599,-0.36844775080680847,-0.36656901240348816
1678040552217526300,15.3795263671875,0.08083628863096237,-0.08104831725358963,-0.008490333333611488
1678040552237397200,15.399397216796874,-0.24360516667366028,-0.07075946033000946,0.126791313290596
1678040552257267200,15.41926708984375,-0.3784140348434448,-0.16769857704639435,0.0453302301466465
1678040552277138200,15.43913818359375,-0.5173550248146057,-0.0033059658017009497,-0.4640246629714966
1678040552297009200,15.459009033203126,-0.7581660151481628,-0.006196010857820511,-0.8076049089431763
1678040552316880100,15.478880126953126,-0.9178035259246826,-0.2912358045578003,-0.5633369088172913
1678040552336751000,15.498751220703125,-0.6314612030982971,-0.565158486366272,-0.24864989519119263
1678040552356621300,15.518621337890625,-0.2312021106481552,-0.3115253150463104,-0.2903420925140381
1678040552376492300,15.5384921875,0.08412756025791168,0.17401297390460968,-0.36511772871017456
1678040552396363300,15.55836328125,0.30590593814849854,0.12414240092039108,0.07252809405326843
1678040552416234200,15.578234130859375,0.5413857698440552,0.13706271350383759,0.5181297659873962
1678040552436104200,15.598104248046875,0.645516037940979,0.39010390639305115,0.4517064392566681
1678040552455975200,15.61797509765625,0.4052610993385315,0.4867311716079712,0.11837803572416306
1678040552475846400,15.637846435546875,-0.10278719663619995,0.20177696645259857,-0.1146351769566536
1678040552495717400,15.65771728515625,-0.32548147439956665,-0.16637460887432098,-0.1082373782992363
1678040552515588400,15.67758837890625,-0.16471217572689056,-0.22530357539653778,-0.034502316266298294
1678040552535458300,15.697458251953124,-0.04055965691804886,-0.03609878197312355,-0.15776008367538452
1678040552555329300,15.717329345703124,-0.11377863585948944,0.017599904909729958,-0.36555716395378113
1678040552575200300,15.7372001953125,-0.2647797465324402,-0.21367056667804718,-0.2838361859321594
1678040552595071200,15.7570712890625,-0.25561511516571045,-0.40637701749801636,-0.09039011597633362
1678040552614941400,15.77694140625,-0.15996655821800232,-0.3385883867740631,0.024524444714188576
1678040552634812400,15.7968125,-0.022781677544116974,-0.07601857930421829,-0.04141091927886009
1678040552654683400,15.816683349609375,0.02121305838227272,-0.005966818891465664,-0.11547449976205826
1678040552674554400,15.836554443359375,-0.057512521743774414,-0.010494356974959373,-0.059431400150060654
1678040552694425300,15.85642529296875,-0.10718478262424469,-0.033229485154151917,-0.028597015887498856
1678040552714295000,15.876294921875,-0.09637366235256195,-0.12852901220321655,0.029074104502797127
1678040552734166300,15.896166259765625,0.051771871745586395,-0.19225749373435974,0.034677278250455856
1678040552754037200,15.916037353515625,0.09796618670225143,0.07583882659673691,-0.037338439375162125
1678040552773908200,15.935908203125,0.031429216265678406,0.2112428992986679,-0.015521122142672539
1678040552793779200,15.955779296875,-0.06208585575222969,0.030165959149599075,-0.0007787422509863973
1678040552813649200,15.975649169921875,-0.13476675748825073,-0.11505081504583359,0.0730380266904831
1678040552833520000,15.99552001953125,-0.1476164311170578,-0.020233742892742157,0.06593352556228638
1678040552853391000,16.01539111328125,-0.03568519651889801,-0.0032312669791281223,0.043179530650377274
1678040552873262000,16.035261962890626,0.07619747519493103,-0.060463547706604004,0.12243824452161789
1678040552893132300,16.05513232421875,0.10776564478874207,-0.02621176466345787,0.1628720462322235
1678040552913003300,16.075003173828126,0.10192282497882843,0.1893399953842163,0.09410444647073746
1678040552932874200,16.094874267578124,0.08057528734207153,0.38460981845855713,0.03296726197004318
1678040552952745700,16.114745849609374,0.04179038107395172,0.44773903489112854,0.12057250738143921
1678040552972616700,16.13461669921875,0.2029004842042923,0.4947207272052765,0.2954876720905304
1678040552992486700,16.154486572265625,0.16973532736301422,0.670026421546936,0.3614942729473114
1678040553012357600,16.174357666015624,-0.07444886863231659,0.7626857757568359,0.47617003321647644
1678040553032228600,16.194228515625,-0.2736298739910126,0.5166175961494446,0.2557656466960907
1678040553052099600,16.214099609375,-0.42134350538253784,0.175564706325531,-0.3948639929294586
1678040553071970800,16.233970703125,-0.3926126956939697,0.014643603004515171,-0.01551627367734909
1678040553091840500,16.253840576171875,0.4347030520439148,0.6842601895332336,0.3957023322582245
1678040553111711700,16.273711669921877,1.375203251838684,1.2957336902618408,-0.534975528717041
1678040553131582700,16.293582763671875,1.7564998865127563,1.5033148527145386,-1.1631760597229004
1678040553151453700,16.31345361328125,1.4621700048446655,0.8047572374343872,-1.3335503339767456
1678040553171324700,16.33332470703125,0.8286723494529724,-0.415559858083725,-1.0843918323516846
1678040553191194600,16.353194580078124,0.19380730390548706,-0.8664212822914124,-0.49039584398269653
1678040553211065600,16.373065673828126,-0.11849605292081833,-0.6898877024650574,-0.3082965016365051
1678040553230936600,16.3929365234375,-0.15689580142498016,-0.347345232963562,-0.2456628978252411
1678040553250807600,16.4128076171875,-0.23217888176441193,-0.37912794947624207,0.13868525624275208
1678040553270677500,16.432677490234376,-0.44615936279296875,-0.48327457904815674,0.4001411497592926
1678040553290548500,16.452548583984374,-0.5775820016860962,-0.39090070128440857,0.3265340030193329
1678040553310419500,16.47241943359375,-0.4070071578025818,-0.1193961352109909,0.38268527388572693
1678040553330290400,16.49229052734375,-0.10454374551773071,0.018286406993865967,0.4753795266151428
1678040553350161700,16.51216162109375,0.10833122581243515,-0.002434946596622467,0.2594490051269531
1678040553370031600,16.532031494140625,-0.02826707810163498,-0.08986969292163849,0.0015349562745541334
1678040553389902600,16.551902587890623,-0.10026537626981735,-0.2047021985054016,-0.0262827780097723
1678040553409773600,16.571773681640625,0.07024439424276352,-0.20123924314975739,0.11292283982038498
1678040553429644500,16.59164453125,0.23825007677078247,-0.02958034910261631,0.06798498332500458
1678040553449515500,16.611515625,0.27835819125175476,0.084078349173069,-0.09075002372264862
1678040553469385700,16.6313857421875,0.16103661060333252,0.04540229216217995,-0.06109444051980972
1678040553489256700,16.651256591796876,0.037712015211582184,0.0072348653338849545,0.03827976807951927
1678040553509127700,16.671127685546875,0.029082391411066055,-0.030204804614186287,0.10239575058221817
1678040553528998700,16.69099853515625,-0.004624785389751196,0.0013255774974822998,0.045101188123226166
1678040553548869600,16.71086962890625,0.0002802480012178421,0.09421343356370926,-0.09832629561424255
1678040553568739600,16.730739501953124,0.02642064169049263,0.040907569229602814,-0.05897785350680351
1678040553588610600,16.750610595703126,-0.07455484569072723,0.057846903800964355,-0.0020860512740910053
1678040553608481500,16.7704814453125,-0.09012354910373688,0.02174266241490841,-0.03151453658938408
1678040553628352800,16.790352783203126,-0.06089582294225693,-0.018817797303199768,-0.060946449637413025
1678040553648223700,16.8102236328125,-0.03165038675069809,-0.06566281616687775,0.01570224203169346
1678040553668093700,16.83009375,0.015213302336633205,-0.17226487398147583,0.08297958225011826
1678040553687964700,16.849964599609375,-0.008406092412769794,-0.10819672048091888,0.05897538363933563
1678040553707835600,16.869835693359374,-0.043225616216659546,0.0419352650642395,0.009608385153114796
1678040553727706600,16.88970654296875,-0.008839546702802181,0.03321051597595215,0.014337651431560516
1678040553747577600,16.90957763671875,0.0015578921884298325,-0.07614331692457199,0.10432650148868561
1678040553767447800,16.92944775390625,-0.01242118887603283,-0.05004067346453667,0.07035461068153381
1678040553787318800,16.94931884765625,0.002513708546757698,0.03010445460677147,-0.0052621616050601006
1678040553807189800,16.969189697265627,0.007418093271553516,0.05186653137207031,0.029240209609270096
1678040553827060700,16.989060791015625,-0.015828395262360573,-0.0017900301609188318,0.022901106625795364
1678040553846931700,17.008931640625,0.007692292332649231,0.01726776920258999,-0.004617397673428059
1678040553866801700,17.0288017578125,0.021077563986182213,0.040115006268024445,0.0033595366403460503
1678040553886672600,17.048672607421874,0.019844768568873405,0.11311245709657669,-0.028384311124682426
1678040553906543600,17.068543701171876,0.00988650694489479,0.1274561583995819,-0.0027784055564552546
1678040553926414800,17.088414794921874,0.007966703735291958,0.05871538445353508,0.05125203728675842
1678040553946286000,17.1082861328125,0.02398897148668766,-0.006905743852257729,0.037434715777635574
1678040553966156000,17.128156005859374,0.02192268893122673,-0.036398597061634064,0.03165014088153839
1678040553986027000,17.148027099609376,0.015388538129627705,-0.040270350873470306,0.021585993468761444
1678040554005898000,17.16789794921875,-0.011083031073212624,-0.06277495622634888,0.0362873449921608
1678040554025769000,17.18776904296875,-0.02667815610766411,-0.08021961152553558,0.0452982634305954
1678040554045640000,17.207639892578126,0.007999664172530174,-0.041124146431684494,0.054537300020456314
1678040554065510100,17.22751025390625,0.012632203288376331,-0.014987542293965816,0.04425809532403946
1678040554085381000,17.247381103515625,0.003296786919236183,-0.012218460440635681,0.026501137763261795
1678040554105252000,17.267252197265623,0.0005055079236626625,-0.004782942123711109,0.022451749071478844
1678040554125123000,17.287123046875,-0.007802764419466257,-0.0014128778129816055,0.03554370254278183
1678040554144993000,17.306992919921875,-0.0009035305120050907,0.0003168070688843727,0.07321728765964508
1678040554164864000,17.326864013671877,-0.0004630633629858494,-0.009291647002100945,0.05714719742536545
1678040554184735000,17.34673486328125,-0.009649839252233505,0.010762771591544151,0.010207131505012512
1678040554204606000,17.36660595703125,-0.01628335565328598,0.05190547928214073,-0.019877459853887558
1678040554224477000,17.386476806640626,-0.012682847678661346,0.045483749359846115,-0.025174815207719803
1678040554244347100,17.40634716796875,-0.016141634434461594,0.007204079069197178,0.0037935443688184023
1678040554264218000,17.426218017578126,-0.017549581825733185,-0.010150395333766937,0.034410055726766586
1678040554284089000,17.446089111328124,-0.01867656782269478,0.0059684040024876595,0.024080198258161545
1678040554303960000,17.4659599609375,-0.0213677566498518,0.04370298236608505,-0.05725860968232155
1678040554323831000,17.4858310546875,0.01276504434645176,0.06385062634944916,-0.07505196332931519
1678040554343701000,17.505700927734374,0.10946979373693466,0.15528495609760284,-0.04630177840590477
1678040554363572000,17.525572021484376,0.05988335609436035,0.10829261690378189,-0.011613640934228897
1678040554383443200,17.545443115234374,-0.012822709046304226,-0.01458356436342001,0.03685344010591507
1678040554403314200,17.565314208984375,-0.008315193466842175,-0.0006699450314044952,0.000941702863201499
1678040554423185200,17.58518505859375,-0.0267755426466465,0.03406732901930809,0.011572582647204399
1678040554443056000,17.60505615234375,-0.043463870882987976,0.0026743558701127768,0.06976620852947235
1678040554462925800,17.62492578125,-0.051589906215667725,-0.0046302094124257565,0.06341586261987686
1678040554482796800,17.644796875,-0.03901783376932144,-0.024038787931203842,0.04148046672344208
1678040554502667800,17.664667724609377,-0.032621145248413086,-0.03972078859806061,0.0633181482553482
1678040554522539000,17.6845390625,-0.041122518479824066,-0.07903856039047241,0.032451383769512177
1678040554542410000,17.704409912109377,-0.04096124321222305,-0.14156897366046906,-0.04390536621212959
1678040554562280000,17.724280029296875,-0.026650279760360718,-0.16874495148658752,-0.07215566188097
1678040554582151000,17.74415087890625,-0.0067508528009057045,-0.18491195142269135,-0.04362177103757858
1678040554602022000,17.76402197265625,-0.015005464665591717,-0.2221800982952118,-0.0223725326359272
1678040554621892900,17.783892822265624,-0.031051289290189743,-0.2189931869506836,-0.03773960471153259
1678040554641763800,17.803763916015626,-0.025572434067726135,-0.2248188555240631,-0.006635226309299469
1678040554661634000,17.823634033203124,-0.022729206830263138,-0.15723414719104767,0.05347905680537224
1678040554681505000,17.843505126953126,-0.2684137523174286,-0.04077558219432831,0.14647197723388672
1678040554701376000,17.8633759765625,-0.2257084995508194,0.08213572204113007,0.17760968208312988
1678040554721247000,17.8832470703125,-0.0908736065030098,0.043186500668525696,0.17646536231040955
1678040554741118000,17.903117919921876,-0.07318040728569031,-0.0888378694653511,0.062128376215696335
1678040554760988000,17.92298779296875,0.002624092623591423,0.15298864245414734,-0.1534115970134735
1678040554780859000,17.94285888671875,0.12819454073905945,0.4270663559436798,-0.2115195393562317
1678040554800730000,17.962730224609373,0.3751777410507202,-0.036665093153715134,0.11919631063938141
1678040554820601000,17.98260107421875,0.7668015956878662,-0.11935901641845703,0.5578358769416809
1678040554840472000,18.00247216796875,1.0410215854644775,0.2517428994178772,0.5704022645950317
1678040554860342000,18.022342041015627,1.0161311626434326,0.5365098118782043,0.5359839797019958
1678040554880213000,18.042212890625,0.9192275404930115,0.5182344317436218,0.593255877494812
1678040554900084000,18.062083984375,1.3647853136062622,0.7384122014045715,0.7582486867904663
1678040554919955000,18.081954833984376,2.1942739486694336,0.8381509184837341,0.9431933760643005
1678040554939825400,18.101825439453126,2.4539475440979004,0.7728351950645447,0.7102512717247009
1678040554959695600,18.121695556640624,1.735754132270813,0.6890204548835754,0.06353705376386642
1678040554979566600,18.141566650390626,0.8177587985992432,1.2796645164489746,-0.7181559205055237
1678040554999437600,18.1614375,0.7311878800392151,1.3671904802322388,-0.7979710102081299
1678040555019308500,18.18130859375,0.7947472929954529,0.8951553702354431,-0.3014850318431854
1678040555039179500,18.201179443359376,0.6034327149391174,0.4806826114654541,0.10117514431476593
1678040555059049700,18.2210498046875,0.43950867652893066,0.2792997658252716,0.19823436439037323
1678040555078920700,18.240920654296875,0.46665966510772705,0.13523069024085999,0.1886267066001892
1678040555098791700,18.260791748046874,0.4458504617214203,0.13252638280391693,0.2812255024909973
1678040555118662700,18.28066259765625,0.20857995748519897,0.18845495581626892,0.4418916702270508
1678040555138533600,18.30053369140625,-0.23977214097976685,-0.177916020154953,0.4513621926307678
1678040555158404600,18.320404541015623,-0.47011175751686096,-0.3117985725402832,0.12762318551540375
1678040555178274300,18.3402744140625,-0.42858245968818665,0.08331046998500824,-0.33594706654548645
1678040555198145300,18.360145263671875,-0.3326879143714905,0.2785622775554657,-0.48255592584609985
1678040555218016500,18.3800166015625,-0.31711357831954956,-0.05719517916440964,-0.3351605534553528
1678040555237887500,18.399887451171875,-0.5598182678222656,-0.3602640628814697,-0.13630615174770355
1678040555257758700,18.4197587890625,-0.5795004367828369,-0.30600857734680176,-0.12972097098827362
1678040555277628400,18.43962841796875,-0.326697438955307,-0.19019319117069244,-0.19449536502361298
1678040555297499400,18.45949951171875,-0.002554028294980526,-0.22598926723003387,-0.1732659637928009
1678040555317370400,18.479370361328126,0.09820996224880219,-0.21752579510211945,-0.1603962928056717
1678040555337241300,18.499241455078124,-0.07401591539382935,-0.23178891837596893,-0.03438086807727814
1678040555357112300,18.5191123046875,-0.0733693465590477,-0.3021988272666931,0.10625330358743668
1678040555376982500,18.538982421875,0.10210416465997696,-0.19749826192855835,0.07562664896249771
1678040555396853500,18.558853515625,0.15882232785224915,0.034823428839445114,-0.07215983420610428
1678040555416724500,18.578724365234375,0.09283623099327087,0.13445328176021576,-0.11514998227357864
1678040555436595500,18.598595458984374,0.07946746051311493,0.09036484360694885,-0.0026445486582815647
1678040555456466400,18.618466552734375,0.05979442596435547,-0.011563652195036411,0.10089435428380966
1678040555476336400,18.63833642578125,0.06581339985132217,0.003131851786747575,0.07710399478673935
1678040555496207400,18.658207275390627,0.08249200135469437,0.16393455862998962,-0.04964571073651314
1678040555516078600,18.67807861328125,0.06436082720756531,0.20919814705848694,-0.08786797523498535
1678040555535949600,18.697949462890627,0.09813445806503296,0.08707381039857864,0.045075930655002594
1678040555555820500,18.717820556640625,0.1068243533372879,-0.0688239112496376,0.22517912089824677
1678040555575691500,18.73769140625,0.08561521023511887,0.004476075991988182,0.20946988463401794
1678040555595561500,18.7575615234375,-0.008982249535620213,0.18411962687969208,0.1405278444290161
1678040555615432400,18.777432373046874,-0.13598614931106567,0.13691987097263336,0.20816519856452942
1678040555635303400,18.797303466796876,-0.15256944298744202,0.0025174045003950596,0.22562256455421448
1678040555655174400,18.81717431640625,-0.22324582934379578,0.053066279739141464,-0.11868559569120407
1678040555675045400,18.83704541015625,-0.3198001980781555,0.3431674838066101,-0.45008498430252075
1678040555694915600,18.85691552734375,-0.49199023842811584,0.39060017466545105,-0.3678617775440216
1678040555714786600,18.87678662109375,-0.6340767741203308,0.10826056450605392,0.0330384187400341
1678040555734657500,18.896657470703126,-0.8165434002876282,-0.16576127707958221,0.18422915041446686
1678040555754528500,18.916528564453124,-1.0505290031433105,-0.26830974221229553,-0.05129711329936981
1678040555774399500,18.9363994140625,-1.201221227645874,0.015043487772345543,-0.17915751039981842
1678040555794269400,18.95626953125,-1.3307931423187256,-0.1158866211771965,0.1633814126253128
1678040555814140700,18.976140625,-1.6147408485412598,-0.6142653226852417,0.5909859538078308
1678040555834011600,18.99601171875,-2.2537951469421387,-0.7091590166091919,0.6397815346717834
1678040555853882600,19.015882568359373,-3.062788486480713,-0.4354517459869385,0.3721903860569
1678040555873753600,19.035753662109375,-3.3486850261688232,-0.503788411617279,-0.6272358894348145
1678040555893624600,19.05562451171875,-2.3040990829467773,-0.0754186362028122,-1.3600445985794067
1678040555913494500,19.07549462890625,-0.619006335735321,0.3119262158870697,-0.7050624489784241
1678040555933365500,19.095365478515625,0.4024110436439514,0.13339313864707947,0.3550697863101959
1678040555953236500,19.115236572265626,0.3727106750011444,-0.6151546239852905,0.95735102891922
1678040555973107500,19.135107421875,0.26453617215156555,-0.7868200540542603,0.6960495114326477
1678040555992978700,19.154978759765626,0.5081205368041992,-0.13610967993736267,0.005643376149237156
1678040556012848600,19.1748486328125,0.6715596318244934,0.5999743342399597,-0.5794359445571899
1678040556032719600,19.1947197265625,0.4925001263618469,0.45028308033943176,-0.5868496298789978
1678040556052590600,19.214590576171876,0.17503926157951355,-0.11461536586284637,-0.283314973115921
1678040556072461600,19.234461669921874,0.110335573554039,-0.3365359902381897,-0.15367041528224945
1678040556092332500,19.25433251953125,0.10456110537052155,-0.1975821554660797,-0.20776857435703278
1678040556112202500,19.274202392578125,0.06160469725728035,-0.012508668936789036,-0.21705284714698792
1678040556132073500,19.294073486328124,0.0006635962054133415,0.0205276757478714,0.007289813831448555
1678040556151944400,19.3139443359375,-0.009311755187809467,-0.6824182868003845,-0.28692859411239624
1678040556171815400,19.3338154296875,-0.015327591449022293,-0.46729403734207153,-0.41036269068717957
1678040556191686400,19.353686279296873,-0.03274521976709366,0.018466545268893242,-0.09626678377389908
1678040556211557400,19.373557373046875,-0.06888072937726974,-0.007334286347031593,0.12135595828294754
1678040556231427300,19.39342724609375,-0.05524815618991852,-0.28918471932411194,0.20746354758739471
1678040556251298300,19.41329833984375,-0.01247071847319603,-0.24902334809303284,0.02652585320174694
1678040556271169500,19.43316943359375,0.09208640456199646,-0.09172139316797256,-0.11534185707569122
1678040556291040500,19.45304052734375,0.10500948131084442,-0.05581234022974968,-0.08847955614328384
1678040556310911500,19.472911376953125,0.013306176289916039,0.024213746190071106,-0.04707224294543266
1678040556330782500,19.492782470703126,-0.05779831111431122,-0.08765534311532974,0.02578456699848175
1678040556350652400,19.51265234375,-0.04649311676621437,-0.12902626395225525,0.05774858593940735
1678040556370523400,19.5325234375,0.03794974833726883,-0.005422879010438919,0.0010778072755783796
1678040556390394400,19.552394287109376,0.1375851035118103,0.10258404910564423,-0.08437872678041458
1678040556410265300,19.572265380859374,0.1437511146068573,0.09808476269245148,-0.06921350955963135
1678040556430136300,19.59213623046875,0.13439805805683136,-0.021717414259910583,-0.0280638188123703
1678040556450006500,19.612006591796874,0.0836256816983223,-0.09562721848487854,0.010952137410640717
1678040556469877500,19.63187744140625,0.09453685581684113,-0.08578737825155258,0.06892833858728409
1678040556489748500,19.65174853515625,0.12321677058935165,-0.07240844517946243,0.07712449878454208
1678040556509619500,19.671619384765624,0.12125140428543091,-0.012536673806607723,-0.012055262923240662
1678040556529490400,19.691490478515625,0.10740384459495544,0.03862782195210457,-0.0470256507396698
1678040556549360600,19.711360595703123,0.01870787888765335,-0.028794247657060623,0.0058262231759727
1678040556569231600,19.731231689453125,-0.022164098918437958,-0.09653782099485397,0.08551231771707535
1678040556589102600,19.7511025390625,0.039252325892448425,-0.06762047857046127,0.14296115934848785
1678040556608973600,19.7709736328125,0.09351363033056259,-0.08216151595115662,0.15070626139640808
1678040556628844500,19.790844482421875,0.084894560277462,-0.04824918508529663,0.11980364471673965
1678040556648715500,19.810715576171877,0.043833352625370026,0.021355867385864258,0.05538458004593849
1678040556668585500,19.83058544921875,-0.018389659002423286,0.05370801314711571,0.006835758686065674
1678040556688456400,19.85045654296875,0.0028295302763581276,-0.01653297245502472,0.03944072872400284
1678040556708327400,19.870327392578126,0.05192355066537857,-0.07461490482091904,0.07485812157392502
1678040556728198700,19.89019873046875,0.056056465953588486,-0.05094422399997711,0.059243179857730865
1678040556748069600,19.910069580078126,0.022579893469810486,-0.011242657899856567,0.005963671021163464
1678040556767940600,19.929940673828124,-0.02490578591823578,-0.013454833999276161,-0.021618308499455452
1678040556787810600,19.949810546875,0.01821821741759777,-0.056329794228076935,-0.06703366339206696
1678040556807681500,19.969681640625,0.1848703920841217,-0.09738098084926605,-0.0800207182765007
1678040556827552500,19.989552490234374,0.376056432723999,-0.1400233805179596,-0.05220705643296242
1678040556847423500,20.009423583984375,0.3668375313282013,0.02056281641125679,-0.016583308577537537
1678040556867294500,20.02929443359375,0.2564558982849121,0.2263728678226471,0.11671977490186691
1678040556887164700,20.04916455078125,0.4443266689777374,-0.015468379482626915,0.35889261960983276
1678040556907035600,20.06903564453125,0.7241523265838623,-0.2646101415157318,0.5240510702133179
1678040556926906600,20.08890673828125,0.9621758460998535,-0.2297608107328415,0.5444753766059875
1678040556946777600,20.108777587890625,1.0930014848709106,-0.20640085637569427,0.6327424645423889
1678040556966648600,20.128648681640627,1.2011234760284424,-0.37585893273353577,0.732435405254364
1678040556986519600,20.14851953125,1.0353553295135498,-0.7037217617034912,0.8610567450523376
1678040557006389500,20.168389404296875,0.13829666376113892,-1.006113886833191,0.904511034488678
1678040557026260700,20.1882607421875,-0.49596095085144043,-1.4810713529586792,0.4771147072315216
1678040557046131700,20.208131591796874,-1.1764469146728516,-1.8361923694610596,-0.3150939345359802
1678040557066002700,20.228002685546876,-1.55361008644104,-1.755600929260254,-0.38344481587409973
1678040557085873700,20.247873779296874,-1.6058039665222168,-1.2004715204238892,-0.23025692999362946
1678040557105744600,20.26774462890625,-1.8937427997589111,-0.7251153588294983,-0.5004503726959229
1678040557125614600,20.287614501953126,-2.2583658695220947,-1.0515482425689697,-0.8114041686058044
1678040557145485600,20.307485595703124,-2.645918369293213,-1.7471187114715576,-0.8385778665542603
1678040557165356500,20.3273564453125,-2.6246564388275146,-1.847805380821228,-0.593174397945404
1678040557185227500,20.3472275390625,-1.987464189529419,-1.2458527088165283,-0.36406368017196655
1678040557205098800,20.3670986328125,-1.370919108390808,-0.7280430793762207,-0.06696430593729019
1678040557224968700,20.38696875,-1.1420085430145264,-0.6582402586936951,0.24988240003585815
1678040557244839700,20.406839599609373,-1.0631687641143799,-0.4930150806903839,0.3606395125389099
1678040557264710700,20.426710693359375,-0.8321952819824219,0.07416120171546936,0.10196877270936966
1678040557284581600,20.44658154296875,-0.3868256211280823,0.16272865235805511,-0.033735763281583786
1678040557304452600,20.46645263671875,0.043718431144952774,-0.3847300410270691,0.2080160230398178
1678040557324323600,20.486323486328125,0.0325598381459713,-0.7418445348739624,0.5679141879081726
1678040557344193800,20.50619384765625,-0.08441644161939621,-0.33888328075408936,0.48891788721084595
1678040557364064800,20.526064697265625,0.08494801819324493,0.3660029470920563,0.09432101994752884
1678040557383935700,20.545935791015626,0.408712774515152,0.5767314434051514,-0.10083829611539841
1678040557403806700,20.565806640625,0.39963042736053467,0.2521137595176697,0.13179020583629608
1678040557423677700,20.585677734375,0.14766709506511688,-0.1220630407333374,0.32054224610328674
1678040557443548700,20.605548583984376,-0.023615803569555283,-0.07067888975143433,0.14792846143245697
1678040557463418600,20.625418701171874,-0.09634442627429962,0.08816993236541748,-0.0992535799741745
1678040557483289600,20.64528955078125,-0.12941958010196686,0.08527301251888275,-0.2955460548400879
1678040557503160800,20.665160888671874,-0.16173362731933594,-0.05614379048347473,-0.33099356293678284
1678040557523031800,20.68503173828125,-0.17628511786460876,-0.18677189946174622,-0.1805332601070404
1678040557542902800,20.70490283203125,-0.07616100460290909,-0.13045558333396912,-0.06572648137807846
1678040557562773800,20.724773681640624,-0.10730794072151184,-0.0401170440018177,-0.050747402012348175
1678040557582643700,20.744643798828125,-0.27438321709632874,-0.05004451051354408,-0.09950269013643265
1678040557602514700,20.7645146484375,-0.3378565311431885,-0.09938766807317734,-0.13090066611766815
1678040557622385700,20.7843857421875,-0.3131199777126312,-0.06109638884663582,-0.13232938945293427
1678040557642256600,20.804256591796875,-0.24907970428466797,0.06296586245298386,-0.13262635469436646
1678040557662127600,20.824127685546873,-0.31586313247680664,0.11930133402347565,-0.1547185778617859
1678040557681997800,20.843997802734375,-0.4247545003890991,0.04103589430451393,-0.1997848004102707
1678040557701868800,20.863868896484377,-0.391583114862442,0.08173346519470215,-0.10812336951494217
1678040557721739800,20.88373974609375,-0.06026352569460869,0.25091439485549927,0.009747237898409367
1678040557741610800,20.90361083984375,0.1501225382089615,0.42303669452667236,0.10256300121545792
1678040557761481700,20.923481689453126,0.033872950822114944,0.33027300238609314,0.26307952404022217
1678040557781352700,20.943352783203125,-0.12828509509563446,0.2037069946527481,0.43244263529777527
1678040557801222700,20.96322265625,-0.17626608908176422,0.45420485734939575,0.27532345056533813
1678040557821093600,20.98309375,0.061159227043390274,1.114823818206787,0.16805286705493927
1678040557840964600,21.002964599609374,0.6655961871147156,1.3371938467025757,0.3374846279621124
1678040557860835600,21.022835693359376,0.8157524466514587,1.0789711475372314,0.6400091052055359
1678040557880706600,21.04270654296875,0.5279148817062378,0.7961643934249878,0.6986300349235535
1678040557900577800,21.062577880859376,0.32975682616233826,1.241557002067566,0.17516306042671204
1678040557920447500,21.082447509765625,0.8741223812103271,2.223296880722046,-0.9615808129310608
1678040557940318500,21.102318359375,2.0185532569885254,2.4091901779174805,-1.6062612533569336
1678040557960190000,21.12218994140625,2.249316453933716,1.6872339248657227,-0.727983295917511
1678040557980061000,21.14206103515625,1.4741960763931274,0.30728235840797424,0.5105727910995483
1678040557999932200,21.16193212890625,0.30892443656921387,-0.3821694552898407,0.7356049418449402
1678040558019803100,21.18180322265625,-0.18741349875926971,0.14403429627418518,0.08917175233364105
1678040558039673000,21.201673095703125,0.07487115263938904,0.5064018964767456,-0.6087945103645325
1678040558059544000,21.2215439453125,0.10971040278673172,0.07198722660541534,-0.6761192679405212
1678040558079415000,21.2414150390625,0.4233793020248413,-1.0656036138534546,-0.7940037250518799
1678040558099286000,21.2612861328125,-0.132346510887146,-0.03955737128853798,-0.3483395278453827
1678040558119157000,21.281156982421876,-0.5024451017379761,0.8889046311378479,-0.3351503014564514
1678040558139028000,21.301028076171875,-0.6645432114601135,0.9874259233474731,-0.7618006467819214
1678040558158898200,21.320898193359376,-0.5466898083686829,0.6558740735054016,-0.6427315473556519
